Trial,Accuracy,RT
0,0,4.375
1,0,4.5
2,0,4.5625
3,0,4.6875
4,0,4.1875
5,0,4.25
6,0,4.25
7,0,0.3125
8,1,0.25
9,0,4.5625
10,1,1.9375
11,0,4.9375
12,0,4.75
13,0,4.3125
14,1,0.125
15,0,0.3125
16,0,4.4375
17,0,4.5
18,0,4.1875
19,0,4.0625
20,0,4.0625
21,1,1.125
22,0,4.6875
23,1,0.125
24,0,4.375
25,0,5.0
26,0,0.125
27,0,4.5625
28,0,1.125
29,0,4.375
30,0,4.3125
31,0,4.5
32,1,0.125
33,0,4.0625
34,0,4.8125
35,0,4.3125
36,0,4.0625
37,1,0.8125
38,0,4.5
39,0,0.125
40,1,0.25
41,0,4.0625
42,0,4.8125
43,0,4.375
44,1,0.125
45,0,4.625
46,1,0.125
47,0,4.5
48,0,4.625
49,0,4.6875
50,0,0.125
51,1,0.1875
52,1,1.3125
53,0,4.5
54,1,0.125
55,1,0.1875
56,0,4.0625
57,1,0.5625
58,0,4.625
59,0,0.125
60,1,0.25
61,0,4.0625
62,1,0.1875
63,0,4.3125
64,0,4.0625
65,0,4.1875
66,0,0.125
67,0,4.625
68,1,1.25
69,0,4.0625
70,1,0.0625
71,1,0.1875
72,0,4.0625
73,0,5.0
74,0,0.125
75,1,1.3125
76,0,4.375
77,0,4.25
78,0,4.0625
79,1,0.375
80,0,4.0625
81,1,0.75
82,1,0.1875
83,0,4.75
84,0,4.5625
85,0,0.0625
86,0,4.0625
87,0,5.0
88,0,4.625
89,0,4.4375
90,0,4.375
91,0,0.125
92,0,4.3125
93,0,0.125
94,1,0.1875
95,1,0.25
96,0,0.1875
97,1,0.1875
98,1,0.1875
99,0,4.4375
100,0,0.125
101,1,0.1875
102,0,0.1875
103,0,4.5625
104,0,4.3125
105,1,0.125
106,1,0.1875
107,1,3.9375
108,0,4.0625
109,1,1.1875
110,0,4.3125
111,0,0.125
112,0,4.0625
113,0,5.0
114,0,4.5625
115,0,0.125
116,1,1.25
117,1,1.1875
118,1,1.3125
119,0,4.8125
120,0,4.3125
121,1,0.125
122,0,4.0625
123,0,5.0
124,1,0.125
125,0,4.9375
126,0,0.0625
127,0,4.4375
128,0,4.375
129,1,0.125
130,0,4.0625
131,0,4.0625
132,0,0.125
133,1,0.1875
134,1,0.1875
135,0,0.1875
136,0,0.25
137,0,4.4375
138,0,4.375
139,0,4.125
140,0,0.125
141,0,4.0625
142,1,0.5625
143,0,4.5625
144,1,0.125
145,1,2.375
146,0,4.375
147,0,4.875
148,0,0.125
149,0,4.0625
150,0,4.75
151,1,0.0625
152,0,4.375
153,0,4.3125
154,0,4.375
155,0,4.5625
156,0,4.25
157,1,0.125
158,0,4.375
159,0,4.375
160,0,4.0625
161,1,0.5
162,0,0.1875
163,0,4.4375
164,0,4.75
165,0,4.625
166,0,4.0625
167,0,4.0625
168,0,4.375
169,0,4.125
170,0,0.125
171,0,4.0625
172,0,0.5
173,0,0.1875
174,0,4.0625
175,0,0.75
176,1,0.1875
177,1,0.1875
178,1,0.1875
179,0,4.625
180,1,0.125
181,0,4.5
182,1,0.125
183,1,0.1875
184,0,4.0625
185,0,4.25
186,0,0.125
187,0,4.5
188,0,0.0625
189,0,0.25
190,0,4.5
191,1,0.125
192,0,0.25
193,1,1.25
194,0,4.0625
195,1,0.375
196,0,0.1875
197,0,4.375
198,0,4.25
199,0,4.4375
200,0,4.3125
201,1,0.125
202,0,4.4375
203,0,4.5625
204,1,0.125
205,1,1.3125
206,1,3.5625
207,0,4.3125
208,1,0.125
209,1,0.1875
210,1,0.1875
211,0,0.1875
212,0,4.0625
213,0,0.0625
214,0,4.4375
215,0,0.125
216,0,4.25
217,1,0.125
218,1,0.1875
219,0,4.3125
220,0,4.0625
221,0,4.625
222,1,0.0625
223,0,0.1875
224,0,4.0625
225,0,4.375
226,0,4.3125
227,0,4.375
228,0,0.0625
229,0,4.3125
230,1,0.125
231,1,0.25
232,0,4.3125
233,0,0.125
234,0,0.1875
235,1,0.1875
236,0,4.5625
237,1,0.125
238,0,4.375
239,0,4.1875
240,0,0.125
241,0,0.1875
242,0,0.3125
243,0,0.1875
244,0,4.5
245,0,0.125
246,0,0.1875
247,1,0.25
248,0,4.5
249,1,0.125
250,0,4.4375
251,1,0.125
252,0,0.1875
253,0,4.0625
254,0,4.6875
255,0,0.0625
256,1,1.375
257,0,4.5
258,0,4.3125
259,0,4.4375
260,0,4.25
261,1,0.1875
262,1,0.1875
263,0,4.625
264,0,4.3125
265,0,4.8125
266,0,0.125
267,1,1.25
268,0,4.0625
269,0,4.75
270,0,4.5625
271,1,0.125
272,1,0.1875
273,1,0.1875
274,1,0.25
275,0,4.375
276,0,0.125
277,1,0.1875
278,1,0.1875
279,1,0.1875
280,0,0.25
281,0,0.1875
282,1,0.25
283,0,4.25
284,1,1.375
285,0,4.4375
286,1,0.1875
287,1,0.1875
288,1,0.1875
289,0,4.875
290,1,0.0625
291,0,0.1875
292,1,0.25
293,0,0.1875
294,0,4.4375
295,0,4.625
296,0,4.4375
297,0,4.3125
298,1,0.1875
299,0,0.1875
300,0,4.3125
301,0,4.375
302,1,0.125
303,0,4.4375
304,0,0.125
305,0,4.4375
306,1,0.125
307,0,0.1875
308,0,4.75
309,1,0.0625
310,0,4.0625
311,0,4.6875
312,0,4.5
313,0,0.125
314,0,4.6875
315,0,4.4375
316,0,0.125
317,0,4.375
318,0,4.5
319,0,4.0625
320,0,0.4375
321,1,0.1875
322,0,4.4375
323,0,4.375
324,0,4.3125
325,0,4.875
326,1,0.125
327,0,4.4375
328,0,4.8125
329,0,0.125
330,0,0.1875
331,0,0.1875
332,0,4.0625
333,0,5.0
334,1,0.125
335,0,4.4375
336,0,4.0625
337,0,4.6875
338,0,4.25
339,0,0.0625
340,0,0.25
341,0,0.1875
342,0,4.3125
343,1,0.125
344,0,4.0625
345,0,0.75
346,0,4.4375
347,0,4.3125
348,0,4.0625
349,0,4.9375
350,0,4.8125
351,1,0.125
352,0,4.75
353,0,4.4375
354,1,0.0625
355,0,0.25
356,0,4.6875
357,1,0.125
358,1,0.1875
359,0,0.1875
360,0,4.0625
361,1,0.0625
362,0,0.3125
363,0,0.1875
364,0,4.4375
365,0,4.0625
366,1,0.125
367,1,0.1875
368,1,0.1875
369,0,0.1875
370,1,0.1875
371,0,0.1875
372,0,4.0625
373,0,4.0625
374,0,0.125
375,0,4.9375
376,0,0.0625
377,0,0.25
378,0,4.9375
379,0,4.75
380,1,0.125
381,0,4.5625
382,1,0.0625
383,1,0.1875
384,0,0.25
385,0,4.375
386,0,4.5625
387,0,4.0625
388,0,1.125
389,1,0.1875
390,0,4.5625
391,0,4.75
392,0,4.25
393,0,0.125
394,0,4.4375
395,0,4.0625
396,0,4.1875
397,0,0.125
398,1,0.1875
399,0,4.4375
400,1,0.125
401,0,4.6875
402,1,0.0625
403,1,0.1875
404,0,4.3125
405,0,4.0625
406,0,4.8125
407,0,0.125
408,0,4.375
409,1,0.125
410,0,0.25
411,0,0.1875
412,0,4.75
413,1,0.125
414,0,4.0625
415,1,0.625
416,0,4.5625
417,1,0.0625
418,0,4.4375
419,0,0.125
420,0,4.3125
421,1,0.0625
422,0,0.1875
423,0,4.0625
424,0,4.0625
425,1,0.125
426,1,3.4375
427,1,0.1875
428,1,0.1875
429,0,0.1875
430,0,4.3125
431,0,0.125
432,0,4.375
433,1,0.125
434,0,4.375
435,1,0.0625
436,0,4.375
437,0,4.25
438,1,1.1875
439,0,4.3125
440,1,0.0625
441,1,0.1875
442,0,0.25
443,0,0.25
444,0,0.1875
445,0,0.1875
446,0,4.4375
447,0,4.25
448,0,4.3125
449,0,0.125
450,0,0.1875
451,0,4.25
452,0,4.1875
453,1,0.125
454,0,4.3125
455,0,4.1875
456,0,4.25
457,0,0.125
458,1,1.25
459,0,4.0625
460,1,0.4375
461,1,0.1875
462,1,0.1875
463,0,0.1875
464,0,4.0625
465,0,4.4375
466,0,4.0625
467,0,0.4375
468,0,0.1875
469,0,0.25
470,1,0.1875
471,0,4.3125
472,0,4.3125
473,0,4.25
474,0,4.25
475,0,4.375
476,1,0.125
477,1,0.1875
478,0,0.1875
479,0,4.0625
480,0,4.6875
481,0,4.1875
482,0,4.375
483,1,0.125
484,0,4.625
485,0,4.125
486,0,4.0625
487,0,0.375
488,0,0.1875
489,0,0.25
490,1,0.1875
491,0,4.5625
492,0,0.125
493,0,0.1875
494,0,4.0625
495,0,4.5625
496,0,4.0625
497,0,4.6875
498,1,0.125
499,0,4.3125
500,0,4.1875
501,0,4.25
502,0,4.375
503,1,0.125
504,0,4.0625
505,0,4.75
506,1,0.125
507,1,0.1875
508,1,0.25
509,0,4.625
510,0,0.125
511,0,4.3125
512,0,4.4375
513,0,4.5
514,0,0.125
515,1,0.1875
516,0,4.4375
517,0,4.5
518,0,0.125
519,0,0.1875
520,0,0.1875
521,0,0.1875
522,0,0.1875
523,0,4.0625
524,0,0.4375
525,0,4.375
526,0,4.375
527,0,4.4375
528,0,4.1875
529,0,4.25
530,1,0.125
531,0,4.3125
532,0,0.125
533,0,4.4375
534,0,4.3125
535,0,4.375
536,1,0.125
537,0,4.4375
538,0,4.0625
539,1,0.375
540,0,4.375
541,1,0.125
542,0,4.4375
543,1,0.125
544,0,0.1875
545,0,4.375
546,0,4.0625
547,0,4.5
548,1,0.125
549,0,4.5625
550,0,4.375
551,0,4.625
552,0,4.25
553,0,4.4375
554,0,0.125
555,1,0.1875
556,0,4.3125
557,1,0.125
558,1,0.1875
559,0,0.3125
560,0,4.6875
561,1,0.125
562,0,4.4375
563,1,0.0625
564,0,4.0625
565,1,0.9375
566,0,4.3125
567,0,4.25
568,1,0.125
569,0,0.1875
570,1,0.1875
571,1,0.1875
572,0,4.0625
573,0,4.0625
574,0,4.0625
575,0,4.3125
576,0,4.0625
577,0,0.125
578,0,4.0625
579,0,4.125
580,1,0.125
581,0,0.1875
582,0,4.0625
583,1,0.0625
584,1,0.1875
585,1,0.25
586,1,0.1875
587,0,4.3125
588,1,1.125
589,1,0.1875
590,0,0.1875
591,0,4.0625
592,0,4.0625
593,0,0.125
594,0,4.0625
595,1,0.125
596,0,0.1875
597,1,0.1875
598,0,0.1875
599,1,1.3125
600,0,0.1875
601,1,0.1875
602,1,1.25
603,0,0.1875
604,0,4.0625
605,1,1.125
606,1,0.1875
607,0,4.0625
608,1,0.125
609,0,0.1875
610,0,0.1875
611,1,0.1875
612,0,0.1875
613,1,1.3125
614,1,0.1875
615,0,4.0625
616,1,0.125
617,0,0.1875
618,0,4.0625
619,0,4.0625
620,0,0.1875
621,0,4.0625
622,0,4.0625
623,1,1.125
624,0,4.3125
625,0,0.125
626,0,4.4375
627,0,4.0625
628,0,4.6875
629,0,0.125
630,1,0.1875
631,0,0.1875
632,0,0.1875
633,1,0.1875
634,0,4.3125
635,0,4.0625
636,1,0.125
637,0,0.1875
638,0,4.0625
639,0,4.4375
640,0,0.125
641,0,4.0625
642,1,0.5
643,0,4.0625
644,1,0.5625
645,1,1.25
646,1,0.1875
647,1,1.25
648,1,0.1875
649,1,0.25
650,1,0.1875
651,0,0.1875
652,1,1.25
653,1,0.25
654,1,0.1875
655,1,0.1875
656,0,0.1875
657,0,0.1875
658,1,1.3125
659,1,1.1875
660,1,1.25
661,0,4.3125
662,1,0.125
663,0,4.4375
664,1,1.125
665,0,4.0625
666,0,0.125
667,1,1.1875
668,0,4.0625
669,0,4.5625
670,1,0.1875
671,0,0.1875
672,0,4.375
673,1,1.25
674,0,4.4375
675,0,4.0625
676,0,0.125
677,0,0.1875
678,1,0.1875
679,1,0.1875
680,0,4.375
681,0,4.25
682,0,0.125
683,1,1.25
684,1,1.25
685,0,0.1875
686,1,0.25
687,0,0.1875
688,1,0.1875
689,0,4.4375
690,0,0.125
691,1,0.1875
692,1,1.3125
693,1,1.1875
694,0,4.0625
695,0,4.625
696,0,0.0625
697,0,4.625
698,1,1.1875
699,0,0.1875
700,0,4.375
701,0,4.375
702,0,4.3125
703,1,0.125
704,0,4.25
705,0,4.0625
706,0,4.625
707,1,0.0625
708,0,4.3125
709,0,4.0625
710,0,4.625
711,0,4.375
712,0,4.375
713,0,4.375
714,0,4.4375
715,0,0.125
716,0,4.0625
717,0,4.6875
718,1,0.125
719,1,0.1875
720,0,4.375
721,1,1.1875
722,1,0.1875
723,0,0.25
724,1,0.1875
725,0,0.1875
726,1,0.1875
727,0,4.5
728,0,4.1875
729,0,0.125
730,0,4.0625
731,0,4.75
732,0,0.0625
733,0,4.4375
734,0,0.125
735,0,4.3125
736,0,4.3125
737,0,4.5
738,0,4.25
739,0,4.375
740,0,0.125
741,0,0.1875
742,0,4.25
743,1,0.125
744,0,0.1875
745,0,4.4375
746,0,0.125
747,0,0.1875
748,1,0.1875
749,1,0.1875
750,1,0.25
751,1,0.25
752,0,0.1875
753,0,4.4375
754,1,0.125
755,0,0.1875
756,1,0.1875
757,0,0.25
758,1,0.1875
759,0,4.25
760,0,0.125
761,0,4.375
762,1,0.0625
763,0,0.25
764,0,4.4375
765,1,0.125
766,0,4.625
767,1,0.1875
768,1,0.1875
769,0,4.3125
770,0,4.25
771,0,4.625
772,0,4.75
773,0,4.3125
774,0,4.5
775,0,4.4375
776,1,0.125
777,0,4.375
778,0,0.125
779,1,0.1875
780,1,0.1875
781,0,0.1875
782,0,4.0625
783,0,4.0625
784,0,0.0625
785,0,4.0625
786,0,4.875
787,0,4.25
788,0,4.375
789,0,4.5
790,0,4.375
791,1,0.125
792,1,0.1875
793,0,4.4375
794,1,0.125
795,0,4.5625
796,0,0.0625
797,0,0.25
798,0,4.5625
799,0,4.25
800,1,1.25
801,0,4.25
802,0,4.0625
803,0,4.4375
804,1,0.1875
805,1,0.1875
806,1,1.25
807,0,4.0625
808,0,0.5
809,1,0.25
810,0,0.1875
811,1,0.1875
812,1,0.1875
813,1,0.1875
814,1,0.1875
815,0,0.1875
816,1,0.1875
817,0,4.0625
818,1,1.9375
819,1,1.3125
820,0,4.3125
821,1,1.1875
822,1,1.375
823,1,0.1875
824,0,4.3125
825,1,0.125
826,1,0.25
827,0,4.3125
828,0,0.125
829,0,0.1875
830,1,0.1875
831,1,0.1875
832,0,0.1875
833,0,4.0625
834,1,1.9375
835,1,1.3125
836,1,1.3125
837,0,4.3125
838,0,4.0625
839,0,4.9375
840,0,0.125
841,0,4.25
842,0,4.3125
843,0,0.125
844,0,4.4375
845,1,1.25
846,0,0.1875
847,1,1.375
848,1,0.1875
849,0,0.1875
850,0,4.4375
851,0,0.125
852,1,1.3125
853,0,0.1875
854,1,1.3125
855,0,4.3125
856,1,1.25
857,1,1.25
858,1,1.375
859,0,4.3125
860,1,0.0625
861,0,4.0625
862,1,1.625
863,0,4.3125
864,0,4.0625
865,1,1.75
866,1,1.8125
867,1,1.25
868,0,4.9375
869,0,0.125
870,1,0.1875
871,1,1.3125
872,0,4.3125
873,1,0.1875
874,1,1.3125
875,1,1.3125
876,0,4.375
877,0,4.25
878,1,1.375
879,0,4.0625
880,1,1.3125
881,1,0.1875
882,1,1.3125
883,1,1.4375
884,0,4.9375
885,0,0.125
886,0,0.1875
887,0,4.375
888,1,1.1875
889,0,4.3125
890,1,1.25
891,0,0.1875
892,0,4.3125
893,0,4.5
894,1,0.125
895,1,0.1875
896,0,4.6875
897,0,0.125
898,1,0.1875
899,1,0.1875
900,1,1.5
901,0,0.1875
902,0,4.0625
903,1,0.125
904,0,0.1875
905,0,4.0625
906,0,4.0625
907,1,1.125
908,1,0.1875
909,0,0.1875
910,1,0.1875
911,1,1.4375
912,0,4.0625
913,0,4.4375
914,0,4.25
915,0,4.25
916,0,4.3125
917,1,0.125
918,0,0.1875
919,1,1.3125
920,0,4.3125
921,1,0.125
922,0,4.375
923,0,4.625
924,0,4.25
925,1,0.125
926,0,4.3125
927,1,1.375
928,0,0.1875
929,0,4.4375
930,0,0.0625
931,1,0.25
932,1,1.3125
933,0,0.1875
934,0,0.1875
935,1,0.1875
936,0,4.5625
937,1,1.25
938,0,4.3125
939,1,0.0625
940,1,0.25
941,1,1.3125
942,0,4.3125
943,0,0.125
944,1,0.1875
945,1,0.25
946,1,1.375
947,0,4.0625
948,1,1.625
949,1,0.1875
950,0,0.1875
951,0,4.0625
952,0,4.25
953,0,0.125
954,1,1.25
955,1,0.1875
956,0,0.25
957,1,1.3125
958,1,1.25
959,0,4.0625
960,0,0.4375
961,0,4.5625
962,0,0.125
963,0,4.0625
964,1,1.25
965,0,4.375
966,1,0.0625
967,1,0.1875
968,0,4.0625
969,0,0.9375
970,0,4.75
971,1,0.125
972,1,0.1875
973,0,0.1875
974,0,0.1875
975,0,0.1875
976,1,0.1875
977,0,4.0625
978,0,4.125
979,1,0.0625
980,0,4.5
981,0,4.4375
982,0,4.8125
983,0,0.125
984,0,4.5
985,0,0.0625
986,0,0.3125
987,1,0.1875
988,0,4.6875
989,0,4.375
990,1,0.125
991,0,4.0625
992,1,1.125
993,1,0.1875
994,0,4.0625
995,0,4.375
996,0,4.5
997,0,4.75
998,1,0.125
999,0,4.3125
1000,1,0.0625
1001,0,4.0625
1002,0,4.0625
1003,1,0.1875
1004,0,4.0625
1005,1,2.25
1006,0,0.1875
1007,0,0.1875
1008,0,4.375
1009,1,0.125
1010,0,4.375
1011,0,0.125
1012,0,0.25
1013,0,4.25
1014,0,4.1875
1015,0,4.0625
1016,1,0.0625
1017,0,4.0625
1018,0,4.5625
1019,0,0.125
1020,0,0.1875
1021,0,0.25
1022,0,0.1875
1023,0,0.1875
1024,1,0.1875
1025,0,4.75
1026,1,0.125
1027,1,1.1875
1028,1,0.1875
1029,1,1.3125
1030,0,4.6875
1031,1,1.1875
1032,1,0.1875
1033,0,0.1875
1034,0,4.0625
1035,1,1.8125
1036,0,4.0625
1037,1,1.125
1038,1,0.1875
1039,1,1.3125
1040,0,4.0625
1041,1,0.125
1042,1,1.3125
1043,0,0.1875
1044,1,1.1875
1045,1,1.3125
1046,1,1.1875
1047,1,1.3125
1048,0,0.1875
1049,0,4.0625
1050,0,0.125
1051,1,1.25
1052,0,4.0625
1053,1,1.1875
1054,1,1.25
1055,1,1.25
1056,0,4.0625
1057,1,1.1875
1058,0,4.0625
1059,0,4.0625
1060,1,1.125
1061,1,1.25
1062,1,1.25
1063,1,1.25
1064,0,4.0625
1065,1,1.1875
1066,0,4.0625
1067,0,4.0625
1068,1,1.125
1069,0,0.1875
1070,1,0.1875
1071,1,1.3125
1072,0,4.0625
1073,0,0.0625
1074,1,1.3125
1075,1,1.1875
1076,1,0.25
1077,0,4.0625
1078,0,4.0625
1079,0,4.0625
1080,1,1.125
1081,1,1.3125
1082,1,1.1875
1083,1,1.3125
1084,0,4.0625
1085,1,1.1875
1086,0,4.0625
1087,1,1.1875
1088,0,4.0625
1089,0,4.0625
1090,0,0.125
1091,0,4.0625
1092,0,4.0625
1093,0,5.0625
1094,1,0.125
1095,1,0.1875
1096,0,0.1875
1097,1,0.1875
1098,0,4.0625
1099,1,0.1875
1100,0,4.0625
1101,1,0.125
1102,1,0.1875
1103,1,0.1875
1104,1,0.1875
1105,1,0.1875
1106,1,0.3125
1107,1,1.25
1108,1,1.1875
1109,1,0.3125
1110,1,1.1875
1111,0,4.0625
1112,0,0.125
1113,0,4.0625
1114,1,0.125
1115,1,0.1875
1116,0,0.1875
1117,1,1.25
1118,0,0.1875
1119,0,4.0625
1120,0,0.125
1121,1,0.1875
1122,0,4.0625
1123,1,0.125
1124,1,0.1875
1125,0,0.1875
1126,1,0.1875
1127,1,0.25
1128,1,1.25
1129,1,0.1875
1130,0,4.0625
1131,1,1.1875
1132,0,4.0625
1133,1,0.125
1134,1,0.1875
1135,0,0.25
1136,0,4.0625
1137,1,0.125
1138,0,0.1875
1139,0,0.1875
1140,1,1.3125
1141,0,0.1875
1142,0,4.0625
1143,0,4.0625
1144,1,0.125
1145,0,4.0625
1146,1,1.1875
1147,0,0.1875
1148,1,0.25
1149,1,0.1875
1150,1,0.1875
1151,0,0.1875
1152,0,4.0625
1153,0,4.0625
1154,1,1.1875
1155,1,1.25
1156,0,0.1875
1157,0,4.0625
1158,0,4.0625
1159,1,1.1875
1160,1,0.1875
1161,0,0.25
1162,0,0.1875
1163,0,0.1875
1164,1,0.1875
1165,1,1.25
1166,1,1.25
1167,1,0.1875
1168,0,4.0625
1169,1,1.125
1170,0,4.0625
1171,0,4.0625
1172,0,4.0625
1173,1,1.125
1174,1,0.1875
1175,1,0.1875
1176,0,0.25
1177,0,0.1875
1178,1,0.25
1179,0,0.1875
1180,0,0.1875
1181,1,0.1875
1182,1,0.1875
1183,1,0.1875
1184,0,4.0625
1185,0,0.125
1186,1,0.25
1187,1,1.25
1188,0,4.0625
1189,0,4.0625
1190,0,4.375
1191,1,0.125
1192,1,0.1875
1193,1,0.1875
1194,1,1.1875
1195,0,4.0625
1196,0,4.3125
1197,0,4.3125
1198,0,4.0625
1199,1,0.4375
1200,0,0.1875
1201,0,0.25
1202,1,0.1875
1203,1,1.25
1204,1,1.3125
1205,1,1.1875
1206,0,0.1875
1207,1,0.25
1208,1,1.25
1209,0,4.375
1210,1,1.125
1211,1,1.25
1212,0,4.375
1213,1,0.125
1214,1,0.1875
1215,0,0.1875
1216,0,4.375
1217,1,1.125
1218,1,0.25
1219,1,0.1875
1220,0,4.3125
1221,1,1.1875
1222,1,0.1875
1223,1,0.1875
1224,0,4.375
1225,1,1.1875
1226,0,0.1875
1227,1,0.1875
1228,1,0.1875
1229,1,1.3125
1230,0,4.4375
1231,0,0.125
1232,0,4.0625
1233,0,4.8125
1234,1,1.125
1235,0,4.375
1236,0,4.25
1237,1,0.125
1238,0,4.5625
1239,1,0.125
1240,1,0.1875
1241,1,0.1875
1242,1,0.1875
1243,0,4.0625
1244,0,4.4375
1245,0,4.25
1246,0,4.25
1247,1,0.125
1248,0,4.3125
1249,1,0.125
1250,0,0.25
1251,1,2.25
1252,1,1.3125
1253,1,1.1875
1254,0,4.0625
1255,1,1.4375
1256,0,0.1875
1257,0,4.0625
1258,1,1.5
1259,1,1.1875
1260,1,0.1875
1261,1,0.1875
1262,0,4.0625
1263,0,4.4375
1264,1,1.1875
1265,1,1.25
1266,0,0.1875
1267,1,1.25
1268,0,4.25
1269,1,0.125
1270,1,0.1875
1271,1,1.3125
1272,1,1.1875
1273,1,1.3125
1274,1,1.1875
1275,0,4.0625
1276,0,4.5625
1277,1,0.0625
1278,1,1.25
1279,0,0.1875
1280,1,1.3125
1281,1,1.1875
1282,1,1.3125
1283,1,1.1875
1284,0,4.0625
1285,0,4.625
1286,0,4.375
1287,1,0.125
1288,1,0.1875
1289,1,0.1875
1290,1,1.3125
1291,0,0.1875
1292,1,1.1875
1293,1,1.3125
1294,1,1.1875
1295,0,4.0625
1296,1,0.125
1297,1,1.25
1298,1,1.25
1299,0,4.0625
1300,1,0.125
1301,0,4.3125
1302,1,0.125
1303,1,1.25
1304,1,1.25
1305,1,1.25
1306,0,0.1875
1307,0,0.1875
1308,1,1.3125
1309,1,1.1875
1310,1,1.3125
1311,1,1.1875
1312,1,1.3125
1313,1,1.1875
1314,1,1.3125
1315,0,4.375
1316,0,0.125
1317,1,1.25
1318,1,1.25
1319,1,1.3125
1320,0,4.25
1321,1,1.1875
1322,1,0.25
1323,0,4.5625
1324,0,0.125
1325,0,0.1875
1326,1,1.25
1327,1,1.25
1328,0,4.3125
1329,1,1.1875
1330,1,1.25
1331,1,1.25
1332,1,1.25
1333,0,4.375
1334,1,1.125
1335,1,1.3125
1336,1,1.25
1337,0,4.3125
1338,1,1.125
1339,1,1.3125
1340,1,1.25
1341,0,4.3125
1342,0,4.25
1343,1,0.0625
1344,1,1.3125
1345,1,1.25
1346,1,0.1875
1347,0,4.375
1348,1,0.125
1349,1,0.1875
1350,1,0.1875
1351,1,0.1875
1352,1,0.1875
1353,1,1.3125
1354,1,1.25
1355,1,1.25
1356,0,4.3125
1357,0,0.125
1358,1,1.25
1359,0,4.4375
1360,1,0.0625
1361,0,4.3125
1362,1,0.125
1363,1,0.1875
1364,0,0.1875
1365,0,4.0625
1366,1,1.375
1367,1,0.25
1368,0,0.25
1369,0,4.25
1370,1,1.1875
1371,0,4.25
1372,1,1.1875
1373,0,0.1875
1374,0,0.1875
1375,1,1.25
1376,1,0.1875
1377,1,1.25
1378,1,1.25
1379,1,1.25
1380,0,4.25
1381,0,4.0625
1382,0,4.4375
1383,0,0.0625
1384,1,0.25
1385,1,0.1875
1386,1,0.1875
1387,1,1.1875
1388,1,1.3125
1389,0,0.1875
1390,0,4.0625
1391,1,1.1875
1392,0,4.0625
1393,1,0.125
1394,0,4.125
1395,1,1.125
1396,1,1.3125
1397,1,0.1875
1398,1,0.1875
1399,0,0.1875
1400,0,0.25
1401,0,4.5625
1402,0,4.1875
1403,1,1.1875
1404,0,4.375
1405,1,0.0625
1406,1,1.25
1407,0,4.3125
1408,1,0.125
1409,0,4.3125
1410,1,0.125
1411,1,0.1875
1412,0,4.0625
1413,0,4.25
1414,0,0.125
1415,0,4.3125
1416,0,4.0625
1417,1,0.375
1418,1,0.1875
1419,0,4.375
1420,1,0.125
1421,1,0.1875
1422,0,4.3125
1423,0,4.0625
1424,1,0.375
1425,1,0.1875
1426,1,1.25
1427,1,0.1875
1428,0,0.25
1429,1,0.1875
1430,0,4.25
1431,0,0.125
1432,1,0.1875
1433,0,0.25
1434,0,0.25
1435,1,1.1875
1436,1,1.3125
1437,0,4.3125
1438,0,4.0625
1439,0,0.3125
1440,0,0.25
1441,0,4.4375
1442,0,4.125
1443,0,0.125
1444,0,0.1875
1445,1,1.3125
1446,1,0.1875
1447,0,0.1875
1448,0,4.3125
1449,1,0.125
1450,1,1.1875
1451,0,4.0625
1452,0,4.5
1453,1,1.1875
1454,0,4.4375
1455,0,4.3125
1456,0,0.125
1457,1,0.1875
1458,0,4.0625
1459,0,0.5
1460,0,4.3125
1461,0,4.3125
1462,0,0.125
1463,0,0.1875
1464,1,0.1875
1465,0,4.0625
1466,0,0.5
1467,1,1.25
1468,1,1.25
1469,1,0.25
1470,1,1.1875
1471,0,0.1875
1472,1,1.3125
1473,1,1.1875
1474,0,4.0625
1475,1,1.6875
1476,0,4.3125
1477,1,1.1875
1478,0,4.4375
1479,0,0.125
1480,1,1.3125
1481,1,1.1875
1482,1,1.3125
1483,0,4.5
1484,0,4.375
1485,1,1.25
1486,1,1.1875
1487,1,1.25
1488,0,4.6875
1489,0,4.625
1490,1,1.1875
1491,0,4.4375
1492,1,1.125
1493,1,1.3125
1494,0,4.6875
1495,0,4.9375
1496,1,1.125
1497,0,4.0625
1498,0,4.8125
1499,0,0.125
1500,1,0.1875
1501,0,4.0625
1502,0,0.4375
1503,0,0.1875
1504,0,0.1875
1505,0,4.5
1506,1,1.125
1507,0,0.1875
1508,0,4.0625
1509,1,1.625
1510,1,1.1875
1511,0,4.0625
1512,1,1.875
1513,1,1.3125
1514,1,1.1875
1515,0,4.0625
1516,0,4.125
1517,0,0.125
1518,0,4.375
1519,0,4.25
1520,0,4.25
1521,0,4.0625
1522,1,0.375
1523,1,0.1875
1524,1,0.1875
1525,0,0.1875
1526,0,0.1875
1527,1,0.1875
1528,0,4.0625
1529,1,0.4375
1530,0,4.3125
1531,0,4.25
1532,0,0.125
1533,0,4.3125
1534,0,4.25
1535,1,1.1875
1536,0,4.3125
1537,0,0.125
1538,1,0.25
1539,1,0.1875
1540,0,0.1875
1541,1,1.25
1542,0,4.3125
1543,0,0.125
1544,0,4.375
1545,0,4.0625
1546,1,1.5625
1547,1,1.1875
1548,0,0.1875
1549,0,4.0625
1550,1,1.6875
1551,1,0.1875
1552,1,0.1875
1553,0,4.0625
1554,1,1.125
1555,0,4.0625
1556,0,4.0625
1557,0,4.25
1558,1,1.125
1559,0,4.0625
1560,0,4.8125
1561,1,0.125
1562,0,4.4375
1563,1,0.0625
1564,0,0.3125
1565,0,4.25
1566,1,0.125
1567,1,1.3125
1568,0,0.1875
1569,0,4.25
1570,1,1.25
1571,0,4.375
1572,1,0.1875
1573,1,1.1875
1574,0,4.4375
1575,1,1.125
1576,1,1.3125
1577,1,1.1875
1578,0,4.4375
1579,1,0.0625
1580,1,1.25
1581,0,4.5
1582,0,0.125
1583,1,0.1875
1584,0,0.1875
1585,1,1.3125
1586,1,0.1875
1587,0,4.375
1588,1,1.1875
1589,0,4.5
1590,0,4.375
1591,1,0.125
1592,1,1.25
1593,1,0.1875
1594,0,0.25
1595,0,4.3125
1596,0,4.25
1597,0,0.125
1598,1,0.1875
1599,1,1.25
1600,1,0.25
1601,1,0.1875
1602,1,1.25
1603,1,0.1875
1604,0,4.375
1605,0,0.125
1606,0,4.3125
1607,1,1.1875
1608,0,4.375
1609,1,1.125
1610,0,4.4375
1611,0,0.0625
1612,1,1.25
1613,0,0.1875
1614,1,1.3125
1615,0,4.3125
1616,1,0.125
1617,0,4.375
1618,1,1.1875
1619,1,1.25
1620,1,1.25
1621,1,1.25
1622,1,1.25
1623,1,1.25
1624,1,1.25
1625,0,4.3125
1626,1,1.1875
1627,1,1.25
1628,1,1.25
1629,0,4.375
1630,1,1.125
1631,0,4.375
1632,0,4.5
1633,0,4.1875
1634,1,0.125
1635,0,4.4375
1636,1,0.125
1637,1,1.25
1638,1,1.25
1639,0,4.4375
1640,1,1.125
1641,0,4.375
1642,1,0.0625
1643,0,4.375
1644,1,0.125
1645,1,1.25
1646,1,1.25
1647,0,4.375
1648,0,0.125
1649,1,0.1875
1650,1,0.1875
1651,1,0.1875
1652,0,0.25
1653,1,1.25
1654,1,1.25
1655,0,0.1875
1656,1,0.1875
1657,1,0.1875
1658,1,1.3125
1659,1,1.1875
1660,1,1.3125
1661,0,4.4375
1662,0,4.25
1663,0,4.5
1664,0,0.0625
1665,0,4.375
1666,1,0.1875
1667,0,4.375
1668,0,4.25
1669,0,0.125
1670,1,0.1875
1671,0,4.5
1672,1,1.1875
1673,1,0.1875
1674,0,4.3125
1675,1,0.125
1676,1,1.25
1677,1,0.1875
1678,0,4.375
1679,1,0.0625
1680,0,4.4375
1681,1,0.125
1682,0,4.3125
1683,1,0.125
1684,0,0.1875
1685,0,4.0625
1686,1,1.4375
1687,0,0.25
1688,1,1.25
1689,0,4.375
1690,0,4.1875
1691,1,1.1875
1692,0,0.1875
1693,0,4.4375
1694,0,4.3125
1695,0,4.25
1696,0,4.25
1697,0,4.25
1698,0,0.125
1699,1,1.1875
1700,0,0.1875
1701,1,0.3125
1702,0,0.1875
1703,0,0.1875
1704,1,1.1875
1705,1,0.1875
1706,1,1.3125
1707,0,0.1875
1708,0,0.1875
1709,1,0.1875
1710,1,0.25
1711,1,0.1875
1712,1,0.1875
1713,0,0.1875
1714,0,0.1875
1715,0,4.375
1716,1,0.125
1717,0,4.3125
1718,0,4.3125
1719,0,0.125
1720,1,0.1875
1721,1,1.3125
1722,0,0.1875
1723,1,1.1875
1724,0,0.1875
1725,0,0.25
1726,0,4.375
1727,1,1.1875
1728,0,4.3125
1729,0,4.3125
1730,1,0.125
1731,0,4.375
1732,0,4.0625
1733,1,1.5625
1734,0,0.1875
1735,0,4.375
1736,0,4.375
1737,0,4.25
1738,0,4.25
1739,1,0.0625
1740,0,4.0625
1741,0,0.75
1742,0,0.1875
1743,1,1.1875
1744,0,0.25
1745,0,4.3125
1746,1,0.125
1747,0,0.1875
1748,0,0.1875
1749,1,1.3125
1750,0,4.3125
1751,0,0.125
1752,0,0.1875
1753,1,1.25
1754,0,0.1875
1755,0,4.375
1756,0,4.1875
1757,0,4.0625
1758,0,4.625
1759,0,4.375
1760,1,0.125
1761,0,0.1875
1762,0,4.4375
1763,0,4.0625
1764,0,4.8125
1765,0,0.0625
1766,1,0.25
1767,0,4.5
1768,0,0.0625
1769,1,1.5625
1770,0,0.1875
1771,0,4.0625
1772,1,0.125
1773,1,0.1875
1774,1,0.25
1775,0,4.0625
1776,1,1.8125
1777,0,4.0625
1778,0,4.625
1779,0,4.5625
1780,1,1.25
1781,1,1.5625
1782,0,4.0625
1783,1,2.25
1784,1,0.1875
1785,1,1.375
1786,1,1.25
1787,0,0.1875
1788,0,4.375
1789,1,1.25
1790,1,1.625
1791,0,4.0625
1792,0,4.9375
1793,1,0.125
1794,0,0.25
1795,1,0.1875
1796,1,1.3125
1797,0,4.3125
1798,0,4.25
1799,1,1.375
1800,0,4.0625
1801,1,2.25
1802,1,1.3125
1803,1,0.1875
1804,1,1.25
1805,1,1.375
1806,0,4.25
1807,1,1.25
1808,0,0.25
1809,0,4.25
1810,1,1.25
1811,1,1.3125
1812,0,4.3125
1813,1,1.25
1814,1,1.3125
1815,1,1.25
1816,0,4.375
1817,1,1.25
1818,0,4.25
1819,0,0.125
1820,1,1.375
1821,0,4.25
1822,0,4.0625
1823,0,4.1875
1824,1,0.125
1825,0,4.4375
1826,1,0.125
1827,0,4.5625
1828,0,0.125
1829,0,4.375
1830,1,1.1875
1831,0,0.1875
1832,0,0.1875
1833,0,0.25
1834,0,4.3125
1835,0,4.375
1836,1,0.0625
1837,1,0.1875
1838,1,0.25
1839,1,0.1875
1840,0,0.1875
1841,0,4.5625
1842,1,0.0625
1843,0,0.25
1844,1,2.4375
1845,0,0.1875
1846,0,4.3125
1847,1,1.3125
1848,1,0.1875
1849,0,0.25
1850,1,0.1875
1851,1,0.1875
1852,0,0.1875
1853,0,0.1875
1854,1,1.75
1855,0,0.1875
1856,0,4.0625
1857,0,4.4375
1858,1,0.125
1859,1,0.1875
1860,1,0.1875
1861,0,4.375
1862,0,0.125
1863,0,4.3125
1864,1,1.1875
1865,1,1.375
1866,0,4.25
1867,0,0.125
1868,0,4.0625
1869,0,0.4375
1870,0,0.1875
1871,0,4.8125
1872,0,4.5
1873,0,0.1875
1874,0,0.1875
1875,0,0.1875
1876,1,1.3125
1877,0,0.1875
1878,1,0.1875
1879,0,0.1875
1880,1,1.375
1881,1,0.1875
1882,1,1.3125
1883,1,1.3125
1884,1,1.25
1885,0,4.0625
1886,1,1.5625
1887,1,1.25
1888,1,1.375
1889,1,1.25
1890,0,4.375
1891,1,1.1875
1892,0,4.375
1893,1,1.25
1894,1,1.3125
1895,0,4.375
1896,0,4.4375
1897,0,4.125
1898,1,0.125
1899,0,4.0625
1900,0,4.0625
1901,1,2.8125
1902,0,0.1875
1903,0,4.0625
1904,1,1.25
1905,1,0.1875
1906,1,1.5625
1907,0,4.0625
1908,0,4.3125
1909,1,0.125
1910,1,0.1875
1911,0,0.1875
1912,0,0.1875
1913,0,0.1875
1914,0,0.1875
1915,1,0.1875
1916,0,4.0625
1917,1,1.5625
1918,1,0.1875
1919,0,0.1875
1920,1,1.375
1921,1,0.1875
1922,0,4.25
1923,0,0.125
1924,1,1.3125
1925,0,4.375
1926,0,4.3125
1927,1,1.3125
1928,0,4.5
1929,0,0.125
1930,0,0.25
1931,0,4.625
1932,0,4.375
1933,0,0.125
1934,1,0.1875
1935,0,4.375
1936,1,1.1875
1937,0,4.0625
1938,1,1.5625
1939,1,1.3125
1940,1,1.25
1941,1,1.375
1942,0,4.25
1943,1,1.25
1944,1,1.3125
1945,1,1.3125
1946,1,1.25
1947,1,1.375
1948,0,4.25
1949,0,4.0625
1950,1,1.4375
1951,1,1.3125
1952,1,1.25
1953,1,1.375
1954,0,4.375
1955,1,1.125
1956,1,1.3125
1957,0,4.375
1958,1,1.25
1959,1,1.25
1960,0,4.375
1961,0,4.1875
1962,0,0.125
1963,1,1.4375
1964,0,4.875
1965,0,4.375
1966,0,4.375
1967,0,4.625
1968,1,1.375
1969,1,0.1875
1970,0,0.1875
1971,0,0.1875
1972,1,0.1875
1973,0,0.25
1974,1,0.1875
1975,0,4.125
1976,0,4.25
1977,0,0.125
1978,1,0.1875
1979,0,0.1875
1980,0,0.25
1981,1,0.1875
1982,1,0.1875
1983,1,0.1875
1984,1,1.375
1985,0,0.1875
1986,1,1.3125
1987,0,4.0625
1988,1,0.5625
1989,0,0.1875
1990,0,0.1875
1991,1,1.3125
1992,0,4.5625
1993,1,0.125
1994,1,1.375
1995,0,4.5
1996,0,4.5
1997,0,4.375
1998,1,2.4375
1999,0,0.1875
2000,0,0.1875
2001,1,2.3125
2002,1,0.1875
2003,0,1.25
2004,1,0.25
2005,0,4.0625
2006,0,1.0625
2007,1,3.5
2008,0,4.25
2009,0,0.125
2010,0,4.875
2011,0,4.25
2012,0,4.3125
2013,1,1.25
2014,1,1.25
2015,0,0.1875
2016,1,1.375
2017,0,0.1875
2018,0,4.375
2019,0,4.1875
2020,0,4.3125
2021,0,4.4375
2022,1,1.1875
2023,1,0.1875
2024,0,4.375
2025,0,0.125
2026,0,4.3125
2027,1,0.125
2028,1,0.1875
2029,0,4.375
2030,1,0.0625
2031,1,0.25
2032,0,0.1875
2033,0,0.1875
2034,1,0.1875
2035,1,0.25
2036,1,0.1875
2037,1,1.3125
2038,0,4.3125
2039,1,1.1875
2040,1,0.1875
2041,1,1.375
2042,0,0.1875
2043,1,0.1875
2044,1,1.25
2045,1,1.375
2046,1,1.25
2047,0,4.375
2048,1,0.0625
2049,1,1.375
2050,0,4.25
2051,1,1.25
2052,1,1.3125
2053,0,4.375
2054,0,4.1875
2055,0,4.25
2056,1,0.125
2057,0,0.1875
2058,0,4.0625
2059,0,0.4375
2060,1,0.1875
2061,1,0.1875
2062,0,0.1875
2063,1,0.1875
2064,1,1.5
2065,0,0.1875
2066,1,2.1875
2067,1,0.25
2068,0,4.0625
2069,1,1.1875
2070,0,4.625
2071,0,4.375
2072,0,4.4375
2073,0,0.125
2074,0,4.1875
2075,0,0.125
2076,0,4.1875
2077,0,4.5625
2078,1,2.3125
2079,1,0.25
2080,0,5.0
2081,0,4.3125
2082,0,4.4375
2083,1,0.125
2084,0,0.1875
2085,1,3.5
2086,1,0.1875
2087,0,4.375
2088,0,4.3125
2089,1,2.25
2090,0,4.375
2091,1,0.125
2092,0,0.1875
2093,0,0.1875
2094,1,0.1875
2095,0,0.1875
2096,1,1.3125
2097,0,0.25
2098,0,4.25
2099,1,0.125
2100,1,1.3125
2101,0,0.1875
2102,0,0.25
2103,0,4.3125
2104,1,0.125
2105,0,4.375
2106,1,1.25
2107,1,0.1875
2108,1,1.25
2109,1,0.1875
2110,0,0.25
2111,1,1.3125
2112,1,1.25
2113,1,1.3125
2114,0,4.375
2115,1,1.1875
2116,0,4.375
2117,0,4.1875
2118,0,0.125
2119,0,4.625
2120,1,0.0625
2121,0,0.1875
2122,0,0.25
2123,1,0.1875
2124,0,4.4375
2125,1,0.125
2126,1,0.1875
2127,0,0.1875
2128,0,4.625
2129,0,4.25
2130,0,0.1875
2131,0,4.375
2132,0,4.375
2133,0,4.3125
2134,1,0.1875
2135,0,4.3125
2136,1,0.125
2137,0,0.1875
2138,0,4.0625
2139,1,1.5625
2140,1,1.25
2141,0,0.1875
2142,0,4.375
2143,1,0.125
2144,1,1.1875
2145,0,0.25
2146,0,4.375
2147,0,0.125
2148,0,4.3125
2149,0,0.0625
2150,0,4.0625
2151,0,4.625
2152,1,1.1875
2153,0,4.0625
2154,0,4.6875
2155,0,0.1875
2156,0,4.3125
2157,0,4.5625
2158,0,0.125
2159,0,4.8125
2160,0,4.5625
2161,1,0.0625
2162,1,0.3125
2163,0,0.1875
2164,1,1.1875
2165,1,0.1875
2166,1,1.3125
2167,1,0.1875
2168,1,1.1875
2169,0,0.25
2170,1,0.1875
2171,0,4.375
2172,1,0.125
2173,0,0.1875
2174,0,4.0625
2175,0,4.625
2176,1,0.125
2177,0,4.5625
2178,1,1.1875
2179,1,1.1875
2180,0,4.6875
2181,0,4.25
2182,1,1.1875
2183,0,0.1875
2184,0,0.1875
2185,1,1.25
2186,0,4.375
2187,0,0.125
2188,0,4.0625
2189,0,4.25
2190,1,0.125
2191,1,0.1875
2192,0,4.0625
2193,0,0.5
2194,0,4.75
2195,0,0.0625
2196,0,4.5625
2197,1,0.0625
2198,0,4.3125
2199,0,4.375
2200,1,0.125
2201,0,0.1875
2202,0,0.1875
2203,1,0.1875
2204,0,0.1875
2205,0,0.1875
2206,0,4.0625
2207,1,0.5625
2208,0,0.1875
2209,0,4.0625
2210,1,0.5625
2211,0,4.25
2212,1,0.125
2213,0,0.1875
2214,1,1.3125
2215,1,1.25
2216,1,0.1875
2217,1,1.3125
2218,0,5.0
2219,1,0.125
2220,0,4.0625
2221,0,0.125
2222,0,4.75
2223,1,0.125
2224,0,4.5625
2225,1,0.125
2226,0,0.1875
2227,1,0.1875
2228,1,0.1875
2229,1,1.3125
2230,0,4.3125
2231,0,4.3125
2232,1,1.125
2233,0,0.1875
2234,1,0.25
2235,1,1.25
2236,0,4.4375
2237,0,0.125
2238,0,0.1875
2239,0,0.1875
2240,1,1.25
2241,0,0.1875
2242,0,4.375
2243,1,0.0625
2244,0,4.0625
2245,1,1.5
2246,1,1.3125
2247,1,1.1875
2248,0,4.375
2249,1,1.125
2250,1,0.1875
2251,0,4.0625
2252,1,0.4375
2253,0,4.3125
2254,0,0.125
2255,1,1.25
2256,1,1.25
2257,0,4.3125
2258,1,1.1875
2259,1,1.25
2260,1,1.25
2261,1,1.25
2262,0,4.375
2263,1,1.125
2264,1,1.25
2265,1,1.25
2266,1,1.1875
2267,1,1.3125
2268,1,1.1875
2269,1,1.3125
2270,1,1.1875
2271,1,1.3125
2272,0,4.375
2273,0,4.25
2274,1,1.125
2275,1,1.3125
2276,1,1.1875
2277,1,1.3125
2278,1,1.1875
2279,1,1.3125
2280,0,4.3125
2281,1,1.1875
2282,1,1.1875
2283,0,4.0625
2284,1,1.4375
2285,1,1.3125
2286,0,4.3125
2287,0,4.25
2288,0,0.125
2289,0,0.1875
2290,1,1.25
2291,1,1.25
2292,1,1.25
2293,0,4.3125
2294,1,1.1875
2295,1,1.25
2296,1,1.25
2297,0,4.375
2298,0,4.25
2299,1,1.1875
2300,1,1.25
2301,1,1.25
2302,0,4.375
2303,0,4.3125
2304,1,0.0625
2305,1,0.1875
2306,0,0.25
2307,1,0.1875
2308,1,1.1875
2309,1,0.1875
2310,1,0.1875
2311,1,0.25
2312,1,1.25
2313,1,1.25
2314,0,4.3125
2315,0,0.125
2316,1,0.1875
2317,0,4.0625
2318,1,1.5
2319,0,4.4375
2320,0,4.1875
2321,1,1.1875
2322,0,0.1875
2323,0,4.375
2324,1,0.125
2325,0,4.3125
2326,1,1.1875
2327,0,0.1875
2328,1,1.1875
2329,0,4.0625
2330,0,0.4375
2331,1,0.1875
2332,1,1.25
2333,1,1.25
2334,0,4.375
2335,0,0.125
2336,0,4.25
2337,0,4.0625
2338,0,4.625
2339,0,4.3125
2340,1,1.1875
2341,1,0.1875
2342,1,0.1875
2343,1,0.1875
2344,1,1.25
2345,0,4.375
2346,0,4.1875
2347,0,4.25
2348,0,4.1875
2349,1,0.125
2350,0,0.1875
2351,0,0.1875
2352,1,0.1875
2353,0,4.3125
2354,0,4.3125
2355,0,0.0625
2356,1,0.1875
2357,1,1.3125
2358,1,0.1875
2359,0,0.1875
2360,1,1.25
2361,1,1.25
2362,1,0.1875
2363,0,4.3125
2364,0,4.25
2365,1,1.125
2366,0,0.25
2367,0,4.25
2368,1,1.1875
2369,1,0.1875
2370,0,0.25
2371,0,4.1875
2372,1,0.125
2373,0,4.0625
2374,0,4.5625
2375,0,4.125
2376,0,0.125
2377,0,0.1875
2378,1,1.3125
2379,0,4.25
2380,1,0.125
2381,0,4.0625
2382,0,0.375
2383,0,4.6875
2384,1,1.25
2385,1,1.5625
2386,0,4.0625
2387,1,0.125
2388,0,0.25
2389,0,4.0625
2390,0,4.3125
2391,0,4.1875
2392,1,0.125
2393,0,0.1875
2394,1,1.375
2395,0,0.1875
2396,0,4.3125
2397,0,4.4375
2398,0,4.6875
2399,0,4.5625
2400,0,0.125
2401,0,4.25
2402,0,0.125
2403,1,0.1875
2404,0,0.25
2405,1,1.25
2406,0,4.5
2407,0,0.125
2408,1,1.1875
2409,0,0.1875
2410,0,0.1875
2411,1,0.25
2412,1,0.25
2413,1,0.1875
2414,1,1.1875
2415,0,0.25
2416,0,4.3125
2417,1,0.125
2418,0,0.1875
2419,1,1.25
2420,0,0.1875
2421,0,4.3125
2422,1,1.125
2423,1,1.3125
2424,1,1.1875
2425,0,4.375
2426,0,4.25
2427,0,0.125
2428,1,1.25
2429,0,4.25
2430,0,4.1875
2431,1,1.1875
2432,1,0.1875
2433,0,4.375
2434,0,4.25
2435,0,4.25
2436,0,0.125
2437,0,0.1875
2438,1,1.1875
2439,0,0.25
2440,0,4.25
2441,0,4.1875
2442,0,4.25
2443,1,1.125
2444,1,1.3125
2445,1,1.1875
2446,1,0.1875
2447,1,0.25
2448,0,0.1875
2449,0,0.25
2450,1,0.1875
2451,0,4.25
2452,1,1.1875
2453,1,1.1875
2454,1,1.3125
2455,1,1.1875
2456,1,1.3125
2457,1,1.1875
2458,1,1.3125
2459,1,1.25
2460,0,4.25
2461,1,1.1875
2462,1,1.25
2463,0,4.25
2464,1,1.1875
2465,1,1.25
2466,1,1.25
2467,0,4.25
2468,1,1.25
2469,1,1.1875
2470,1,1.3125
2471,0,4.25
2472,1,1.1875
2473,0,4.25
2474,1,1.1875
2475,0,4.3125
2476,0,4.1875
2477,1,1.1875
2478,0,4.3125
2479,0,4.25
2480,1,1.125
2481,0,4.375
2482,0,0.125
2483,0,0.1875
2484,0,0.1875
2485,1,0.1875
2486,0,0.1875
2487,0,4.3125
2488,0,4.25
2489,1,0.125
2490,1,1.3125
2491,0,0.1875
2492,0,4.25
2493,0,4.1875
2494,1,0.125
2495,0,4.375
2496,0,4.1875
2497,1,0.125
2498,0,4.4375
2499,1,0.0625
2500,1,1.3125
2501,0,4.3125
2502,0,0.125
2503,0,0.1875
2504,0,0.1875
2505,0,4.0625
2506,0,4.5625
2507,1,1.25
2508,0,0.1875
2509,1,0.25
2510,1,1.375
2511,1,2.75
2512,0,4.0625
2513,1,0.0625
2514,0,4.0625
2515,1,0.4375
2516,0,0.1875
2517,0,0.1875
2518,0,4.4375
2519,0,4.4375
2520,1,0.125
2521,1,1.375
2522,0,4.375
2523,0,0.0625
2524,1,1.3125
2525,0,0.25
2526,0,0.1875
2527,1,1.3125
2528,1,1.25
2529,1,1.375
2530,1,1.25
2531,0,4.375
2532,1,1.1875
2533,1,1.3125
2534,1,1.25
2535,0,4.0625
2536,1,1.5
2537,0,4.375
2538,1,1.1875
2539,1,1.3125
2540,1,1.25
2541,0,4.0625
2542,1,1.5
2543,0,4.375
2544,1,1.25
2545,0,4.3125
2546,1,1.25
2547,0,4.375
2548,1,1.25
2549,1,1.25
2550,1,1.3125
2551,0,4.3125
2552,0,4.375
2553,0,4.875
2554,1,0.125
2555,0,0.1875
2556,1,1.25
2557,0,4.375
2558,0,4.3125
2559,0,0.125
2560,1,0.1875
2561,0,4.3125
2562,1,1.3125
2563,0,0.1875
2564,0,4.375
2565,0,0.125
2566,0,4.375
2567,0,0.125
2568,1,1.3125
2569,1,0.1875
2570,0,4.3125
2571,1,1.25
2572,0,0.1875
2573,1,0.1875
2574,0,4.0625
2575,1,0.4375
2576,0,0.1875
2577,0,0.1875
2578,0,4.375
2579,0,0.125
2580,1,0.1875
2581,0,0.1875
2582,1,0.1875
2583,1,0.1875
2584,0,0.1875
2585,1,0.1875
2586,0,0.25
2587,1,1.3125
2588,0,0.1875
2589,1,0.1875
2590,0,4.3125
2591,1,1.25
2592,1,1.25
2593,1,0.1875
2594,1,1.375
2595,1,1.25
2596,0,4.375
2597,0,4.25
2598,1,1.1875
2599,0,4.375
2600,0,0.125
2601,1,1.25
2602,1,1.3125
2603,1,1.3125
2604,1,1.3125
2605,1,1.25
2606,0,4.375
2607,0,4.3125
2608,0,4.25
2609,0,0.125
2610,0,4.4375
2611,1,1.1875
2612,0,0.1875
2613,1,1.375
2614,0,4.25
2615,0,0.125
2616,1,0.1875
2617,0,4.0625
2618,1,0.4375
2619,0,4.375
2620,1,1.1875
2621,1,0.1875
2622,0,0.1875
2623,1,0.1875
2624,0,0.1875
2625,1,0.25
2626,0,4.3125
2627,0,4.3125
2628,0,0.125
2629,1,1.25
2630,1,0.1875
2631,0,4.0625
2632,0,0.4375
2633,0,4.4375
2634,0,0.125
2635,1,0.1875
2636,1,1.3125
2637,0,4.0625
2638,1,1.9375
2639,0,0.1875
2640,1,3.1875
2641,0,4.0625
2642,1,1.1875
2643,1,1.3125
2644,1,1.3125
2645,0,4.3125
2646,1,1.25
2647,0,4.3125
2648,0,0.125
2649,1,1.3125
2650,1,1.3125
2651,0,4.3125
2652,1,1.25
2653,1,1.25
2654,0,4.375
2655,1,1.1875
2656,0,4.375
2657,1,1.3125
2658,0,4.75
2659,1,1.25
2660,0,4.3125
2661,1,1.3125
2662,0,4.75
2663,1,1.3125
2664,1,0.1875
2665,1,1.3125
2666,1,1.25
2667,0,4.0625
2668,0,4.5
2669,1,0.125
2670,1,0.1875
2671,1,1.375
2672,1,1.25
2673,0,4.375
2674,0,4.375
2675,0,0.0625
2676,0,4.375
2677,1,0.125
2678,1,0.1875
2679,0,4.375
2680,0,0.0625
2681,0,0.25
2682,0,0.1875
2683,1,1.3125
2684,0,0.1875
2685,0,4.5
2686,1,0.1875
2687,0,0.1875
2688,1,0.1875
2689,0,0.1875
2690,1,0.1875
2691,0,0.1875
2692,1,1.3125
2693,1,1.3125
2694,1,1.25
2695,0,4.0625
2696,1,0.4375
2697,1,0.1875
2698,1,1.3125
2699,0,4.3125
2700,0,4.25
2701,1,0.125
2702,1,0.1875
2703,1,0.1875
2704,1,1.3125
2705,0,4.375
2706,0,0.0625
2707,0,4.0625
2708,1,1.5
2709,0,4.375
2710,1,0.125
2711,0,0.1875
2712,0,4.3125
2713,0,4.25
2714,1,1.3125
2715,1,0.1875
2716,1,1.25
2717,1,0.1875
2718,0,4.0625
2719,0,4.5625
2720,1,0.125
2721,0,4.3125
2722,0,0.125
2723,1,0.1875
2724,1,1.375
2725,1,1.3125
2726,0,4.625
2727,1,1.25
2728,0,4.25
2729,1,1.4375
2730,1,0.1875
2731,0,4.0625
2732,1,1.125
2733,0,0.1875
2734,1,0.1875
2735,0,4.4375
2736,0,4.3125
2737,1,0.125
2738,1,1.375
2739,1,0.25
2740,0,4.0625
2741,0,4.3125
2742,1,0.0625
2743,0,4.4375
2744,0,4.5
2745,1,0.125
2746,0,4.0625
2747,1,2.75
2748,0,4.0625
2749,0,0.0625
2750,0,0.1875
2751,0,4.875
2752,0,0.0625
2753,0,4.0625
2754,0,0.4375
2755,0,0.1875
2756,0,4.875
2757,1,0.0625
2758,1,1.3125
2759,1,1.3125
2760,0,4.375
2761,0,0.0625
2762,1,0.25
2763,1,0.1875
2764,1,1.25
2765,0,0.1875
2766,0,4.0625
2767,0,0.4375
2768,1,1.3125
2769,1,1.375
2770,0,0.1875
2771,1,1.375
2772,0,4.375
2773,0,4.4375
2774,0,4.5
2775,0,4.3125
2776,1,0.125
2777,0,0.1875
2778,0,0.1875
2779,1,0.25
2780,0,4.3125
2781,0,4.0625
2782,0,0.5
2783,0,4.5
2784,1,0.1875
2785,0,4.4375
2786,1,1.25
2787,0,0.1875
2788,0,0.1875
2789,1,1.1875
2790,0,0.25
2791,0,0.1875
2792,1,3.6875
2793,0,0.1875
2794,0,4.8125
2795,1,0.0625
2796,0,4.4375
2797,1,1.5625
2798,0,4.0625
2799,1,1.4375
2800,0,4.0625
2801,0,4.625
2802,1,1.25
2803,0,4.25
2804,0,0.125
2805,0,0.1875
2806,0,4.0625
2807,1,1.5625
2808,1,1.25
2809,0,4.0625
2810,1,1.5
2811,1,1.3125
2812,0,4.3125
2813,1,1.25
2814,1,1.25
2815,0,4.0625
2816,0,4.5625
2817,0,4.375
2818,1,0.125
2819,0,4.875
2820,0,4.4375
2821,0,0.125
2822,1,0.1875
2823,0,4.375
2824,0,4.0625
2825,0,4.6875
2826,0,0.0625
2827,1,0.25
2828,0,0.1875
2829,0,0.1875
2830,1,0.1875
2831,0,4.4375
2832,0,0.125
2833,0,0.1875
2834,0,4.4375
2835,1,0.125
2836,0,0.25
2837,0,4.375
2838,1,1.1875
2839,0,4.3125
2840,1,1.25
2841,1,1.1875
2842,0,4.5625
2843,0,4.25
2844,0,0.1875
2845,1,1.1875
2846,1,1.25
2847,1,1.3125
2848,0,4.5
2849,0,4.375
2850,0,4.4375
2851,1,1.125
2852,1,1.3125
2853,1,1.1875
2854,1,1.3125
2855,0,4.3125
2856,0,4.0625
2857,1,1.4375
2858,1,1.25
2859,0,4.375
2860,1,0.125
2861,1,1.1875
2862,1,1.3125
2863,0,4.3125
2864,0,4.0625
2865,0,4.5625
2866,0,0.125
2867,0,0.25
2868,0,0.1875
2869,0,4.3125
2870,1,0.125
2871,0,0.1875
2872,0,4.375
2873,0,0.125
2874,0,0.1875
2875,0,0.1875
2876,1,0.1875
2877,1,1.3125
2878,0,4.3125
2879,0,0.125
2880,0,0.1875
2881,1,0.25
2882,0,4.625
2883,0,0.125
2884,1,0.1875
2885,1,0.25
2886,0,4.4375
2887,0,4.0625
2888,1,1.5
2889,1,1.3125
2890,1,0.1875
2891,0,0.1875
2892,0,4.375
2893,0,4.1875
2894,0,0.125
2895,0,0.1875
2896,0,4.0625
2897,1,0.4375
2898,1,1.25
2899,0,4.375
2900,1,0.125
2901,1,0.1875
2902,0,0.1875
2903,0,0.1875
2904,0,4.375
2905,0,4.25
2906,1,0.125
2907,0,0.1875
2908,0,0.1875
2909,1,1.3125
2910,1,1.375
2911,1,1.25
2912,0,4.375
2913,0,4.1875
2914,1,0.125
2915,0,4.4375
2916,0,4.375
2917,0,0.125
2918,1,0.1875
2919,1,1.25
2920,0,4.0625
2921,0,4.5625
2922,1,0.125
2923,1,0.1875
2924,0,4.25
2925,0,4.0625
2926,0,0.3125
2927,0,0.1875
2928,1,0.1875
2929,1,1.3125
2930,0,0.1875
2931,1,0.1875
2932,0,4.5
2933,1,0.0625
2934,1,1.3125
2935,0,0.1875
2936,0,0.1875
2937,0,4.0625
2938,0,4.6875
2939,1,0.0625
2940,1,1.3125
2941,1,1.25
2942,0,0.1875
2943,1,0.1875
2944,0,0.25
2945,1,0.1875
2946,0,0.1875
2947,1,1.25
2948,0,4.5
2949,1,1.125
2950,0,0.1875
2951,1,1.3125
2952,1,1.1875
2953,0,4.0625
2954,0,4.0625
2955,0,4.5625
2956,1,1.1875
2957,0,0.25
2958,1,0.1875
2959,1,0.1875
2960,1,0.1875
2961,1,0.1875
2962,0,0.1875
2963,1,1.25
2964,0,0.1875
2965,1,1.3125
2966,1,0.1875
2967,1,1.1875
2968,0,4.0625
2969,1,1.625
2970,0,4.3125
2971,0,4.0625
2972,1,1.375
2973,0,4.375
2974,1,0.0625
2975,1,0.1875
2976,1,1.25
2977,1,0.25
2978,0,0.1875
2979,0,4.3125
2980,0,4.3125
2981,1,0.125
2982,1,0.1875
2983,0,0.1875
2984,0,0.1875
2985,0,4.0625
2986,1,0.5
2987,1,0.25
2988,0,0.1875
2989,0,4.375
2990,1,1.125
2991,1,1.3125
2992,1,1.1875
2993,0,4.375
2994,0,0.125
2995,1,1.25
2996,1,1.25
2997,1,1.25
2998,1,1.25
2999,1,1.25
3000,1,1.1875
3001,1,1.3125
3002,0,4.5625
3003,0,4.3125
3004,0,4.3125
3005,0,4.375
3006,0,4.25
3007,1,0.125
3008,0,0.1875
3009,1,0.1875
3010,0,0.1875
3011,0,4.5
3012,1,1.1875
3013,1,0.1875
3014,1,1.25
3015,1,0.1875
3016,0,0.1875
3017,0,4.0625
3018,0,4.1875
3019,1,0.125
3020,1,0.1875
3021,1,1.25
3022,0,4.5
3023,0,4.3125
3024,0,4.5625
3025,1,0.125
3026,1,0.1875
3027,1,0.1875
3028,1,1.25
3029,0,4.3125
3030,1,1.1875
3031,0,4.3125
3032,1,0.125
3033,0,4.4375
3034,1,0.125
3035,1,0.1875
3036,0,0.1875
3037,1,0.1875
3038,1,1.3125
3039,0,4.9375
3040,0,4.1875
3041,0,0.125
3042,1,0.1875
3043,0,0.1875
3044,1,1.3125
3045,1,1.1875
3046,0,4.0625
3047,1,0.4375
3048,1,1.1875
3049,1,1.3125
3050,1,1.25
3051,1,1.25
3052,1,0.1875
3053,1,0.1875
3054,0,4.375
3055,0,4.1875
3056,0,4.0625
3057,0,4.5625
3058,1,0.125
3059,0,0.25
3060,1,1.1875
3061,1,1.25
3062,1,0.25
3063,1,0.1875
3064,0,0.1875
3065,0,4.5625
3066,0,0.125
3067,0,0.25
3068,1,0.1875
3069,1,0.1875
3070,1,0.1875
3071,1,0.1875
3072,1,0.1875
3073,1,1.25
3074,1,1.25
3075,1,1.25
3076,0,4.625
3077,0,0.0625
3078,1,0.25
3079,0,4.375
3080,0,4.25
3081,1,1.1875
3082,0,0.25
3083,0,4.375
3084,1,0.125
3085,1,1.1875
3086,0,4.0625
3087,1,0.5625
3088,1,0.1875
3089,0,4.375
3090,0,4.25
3091,1,0.125
3092,1,1.3125
3093,1,0.1875
3094,0,0.1875
3095,1,1.1875
3096,1,1.3125
3097,1,0.1875
3098,0,4.3125
3099,1,1.1875
3100,1,1.25
3101,0,4.5
3102,1,1.1875
3103,0,0.25
3104,1,1.1875
3105,0,4.5
3106,1,1.1875
3107,0,4.375
3108,1,1.125
3109,1,0.1875
3110,0,0.25
3111,0,4.375
3112,0,4.4375
3113,1,0.125
3114,1,0.1875
3115,1,1.1875
3116,1,0.1875
3117,0,0.1875
3118,1,0.25
3119,0,4.5
3120,1,0.125
3121,1,0.1875
3122,0,0.1875
3123,1,1.25
3124,0,4.3125
3125,1,0.125
3126,1,1.25
3127,1,1.25
3128,0,0.1875
3129,1,1.3125
3130,0,4.4375
3131,0,4.5625
3132,0,0.125
3133,1,1.25
3134,1,0.1875
3135,0,0.1875
3136,0,4.5625
3137,0,4.3125
3138,0,0.125
3139,0,4.4375
3140,0,4.0625
3141,1,1.4375
3142,1,1.25
3143,0,4.3125
3144,1,1.1875
3145,0,0.1875
3146,1,1.25
3147,1,1.25
3148,0,4.3125
3149,0,0.125
3150,1,1.25
3151,0,4.4375
3152,1,0.0625
3153,1,0.3125
3154,1,0.1875
3155,1,1.1875
3156,0,0.1875
3157,1,1.3125
3158,0,4.3125
3159,0,4.375
3160,1,1.1875
3161,0,4.375
3162,0,4.375
3163,0,0.125
3164,0,0.1875
3165,0,4.3125
3166,0,4.0625
3167,0,0.375
3168,0,0.25
3169,0,4.6875
3170,1,1.125
3171,1,0.1875
3172,1,0.1875
3173,0,4.0625
3174,1,0.5
3175,0,4.3125
3176,1,1.125
3177,1,0.25
3178,1,0.1875
3179,1,0.1875
3180,1,1.25
3181,1,1.25
3182,1,1.25
3183,1,1.25
3184,0,4.375
3185,0,0.0625
3186,1,1.25
3187,1,1.3125
3188,1,1.1875
3189,0,4.4375
3190,1,1.125
3191,0,4.375
3192,0,4.0625
3193,1,1.4375
3194,1,1.3125
3195,0,4.375
3196,0,4.0625
3197,1,0.375
3198,0,4.3125
3199,1,1.125
3200,1,1.25
3201,1,1.3125
3202,0,4.3125
3203,1,0.125
3204,0,4.375
3205,1,0.0625
3206,1,1.3125
3207,1,1.1875
3208,1,0.25
3209,1,1.25
3210,0,4.5625
3211,0,4.375
3212,1,1.25
3213,0,4.5
3214,1,0.0625
3215,0,0.1875
3216,0,0.25
3217,1,0.25
3218,0,0.1875
3219,1,0.1875
3220,0,4.375
3221,1,1.1875
3222,1,1.25
3223,0,4.75
3224,0,0.125
3225,0,4.4375
3226,0,0.125
3227,0,4.4375
3228,1,1.1875
3229,1,0.1875
3230,1,1.25
3231,0,4.375
3232,0,4.3125
3233,1,1.125
3234,0,4.6875
3235,0,4.375
3236,1,0.125
3237,0,0.1875
3238,0,0.1875
3239,1,0.1875
3240,1,0.1875
3241,1,0.25
3242,1,1.1875
3243,1,1.3125
3244,1,0.1875
3245,0,0.1875
3246,1,0.1875
3247,0,0.1875
3248,1,0.1875
3249,0,4.0625
3250,0,0.75
3251,0,4.0625
3252,0,4.625
3253,1,1.1875
3254,1,0.1875
3255,1,1.25
3256,1,0.1875
3257,1,1.25
3258,0,4.5625
3259,0,4.375
3260,1,1.1875
3261,1,0.1875
3262,1,0.1875
3263,0,0.25
3264,0,4.375
3265,1,1.1875
3266,0,4.5
3267,0,0.125
3268,0,0.1875
3269,0,0.1875
3270,1,1.25
3271,0,4.5
3272,1,1.125
3273,1,1.3125
3274,0,0.1875
3275,1,1.1875
3276,1,1.3125
3277,1,1.1875
3278,0,4.0625
3279,1,1.5
3280,0,4.4375
3281,1,1.25
3282,1,1.1875
3283,1,1.25
3284,1,1.25
3285,0,4.4375
3286,0,4.5
3287,1,1.1875
3288,0,4.3125
3289,0,4.375
3290,0,0.125
3291,0,4.0625
3292,1,1.5
3293,1,1.25
3294,1,1.25
3295,0,4.4375
3296,1,1.125
3297,0,4.3125
3298,0,4.25
3299,0,4.25
3300,1,0.125
3301,0,4.3125
3302,0,4.1875
3303,0,0.125
3304,1,1.3125
3305,1,1.1875
3306,1,1.3125
3307,1,1.1875
3308,1,1.3125
3309,1,0.1875
3310,0,4.3125
3311,0,4.3125
3312,1,1.125
3313,0,4.375
3314,1,1.125
3315,0,0.1875
3316,0,4.0625
3317,0,0.4375
3318,1,0.25
3319,1,1.25
3320,0,4.375
3321,0,0.125
3322,0,4.0625
3323,1,0.5
3324,1,1.25
3325,0,4.5
3326,1,0.125
3327,1,0.1875
3328,0,4.375
3329,1,0.0625
3330,0,0.25
3331,1,1.25
3332,0,4.3125
3333,1,0.125
3334,1,0.1875
3335,1,1.25
3336,1,1.25
3337,1,0.1875
3338,0,4.375
3339,1,1.125
3340,1,1.25
3341,0,0.25
3342,1,1.1875
3343,1,1.3125
3344,0,4.375
3345,1,1.125
3346,0,4.5
3347,1,0.0625
3348,0,4.4375
3349,0,4.375
3350,0,4.1875
3351,0,0.125
3352,1,0.1875
3353,0,4.375
3354,0,4.25
3355,1,0.125
3356,0,4.5625
3357,0,0.125
3358,1,1.1875
3359,1,0.1875
3360,1,0.1875
3361,0,4.0625
3362,1,1.4375
3363,1,1.3125
3364,0,0.1875
3365,0,4.375
3366,0,4.1875
3367,0,0.125
3368,0,4.375
3369,0,0.125
3370,1,1.25
3371,1,0.1875
3372,1,1.25
3373,1,1.25
3374,0,4.8125
3375,1,1.1875
3376,0,4.3125
3377,0,0.0625
3378,1,0.25
3379,1,0.1875
3380,0,0.1875
3381,1,1.25
3382,0,0.1875
3383,0,0.25
3384,0,4.3125
3385,1,1.1875
3386,0,4.3125
3387,1,1.125
3388,0,4.0625
3389,0,4.5625
3390,0,0.125
3391,0,4.3125
3392,0,4.25
3393,0,0.125
3394,0,0.1875
3395,0,0.1875
3396,1,0.1875
3397,0,0.1875
3398,1,0.1875
3399,0,4.3125
3400,0,0.125
3401,0,0.1875
3402,1,1.25
3403,0,4.9375
3404,1,1.25
3405,1,0.1875
3406,1,1.1875
3407,1,1.3125
3408,0,0.1875
3409,0,4.5625
3410,0,0.125
3411,1,0.25
3412,1,0.1875
3413,0,0.25
3414,0,4.25
3415,1,1.1875
3416,0,4.3125
3417,0,0.125
3418,0,4.375
3419,1,1.125
3420,0,0.25
3421,0,0.1875
3422,1,0.1875
3423,1,0.1875
3424,1,0.25
3425,0,4.25
3426,1,1.25
3427,0,0.1875
3428,1,1.1875
3429,0,0.25
3430,1,1.25
3431,1,1.1875
3432,1,1.3125
3433,0,4.3125
3434,1,1.125
3435,1,1.25
3436,0,4.3125
3437,1,1.25
3438,1,1.1875
3439,0,4.3125
3440,1,1.125
3441,0,4.0625
3442,1,1.375
3443,1,1.3125
3444,0,0.1875
3445,1,1.25
3446,1,1.25
3447,0,4.25
3448,1,1.1875
3449,0,4.25
3450,0,4.0625
3451,1,0.3125
3452,0,4.25
3453,1,1.1875
3454,1,0.1875
3455,0,0.1875
3456,0,4.3125
3457,1,1.125
3458,0,0.1875
3459,1,1.3125
3460,0,4.375
3461,0,4.3125
3462,1,0.125
3463,0,4.3125
3464,1,1.125
3465,0,4.3125
3466,0,4.1875
3467,1,0.125
3468,0,4.3125
3469,1,1.125
3470,1,0.1875
3471,0,4.375
3472,1,1.125
3473,0,4.3125
3474,1,0.125
3475,0,4.3125
3476,0,4.1875
3477,0,4.25
3478,0,4.375
3479,1,0.1875
3480,0,4.3125
3481,0,4.25
3482,1,0.125
3483,0,0.1875
3484,0,4.3125
3485,1,2.3125
3486,1,0.1875
3487,0,0.1875
3488,1,0.25
3489,0,0.1875
3490,0,0.25
3491,0,0.1875
3492,1,0.1875
3493,0,4.8125
3494,0,4.25
3495,0,4.25
3496,0,0.125
3497,1,0.1875
3498,1,1.3125
3499,0,4.0625
3500,0,4.75
3501,0,0.0625
3502,1,0.25
3503,1,3.5625
3504,0,4.3125
3505,0,0.125
3506,0,4.0625
3507,1,0.125
3508,1,1.375
3509,0,4.0625
3510,1,0.125
3511,0,4.625
3512,0,4.3125
3513,0,4.75
3514,0,4.25
3515,0,0.125
3516,0,4.3125
3517,0,4.4375
3518,1,0.125
3519,1,1.25
3520,0,4.25
3521,0,4.3125
3522,0,0.0625
3523,1,1.3125
3524,1,1.25
3525,1,1.25
3526,0,0.1875
3527,0,0.1875
3528,0,0.1875
3529,0,4.0625
3530,1,0.375
3531,0,4.25
3532,0,0.125
3533,1,1.25
3534,0,4.25
3535,1,1.25
3536,0,4.25
3537,1,0.0625
3538,1,0.25
3539,1,1.25
3540,0,4.3125
3541,1,0.125
3542,1,0.1875
3543,0,0.1875
3544,1,0.1875
3545,1,1.25
3546,0,4.3125
3547,0,0.0625
3548,0,4.0625
3549,1,1.4375
3550,0,4.3125
3551,0,0.0625
3552,1,1.25
3553,0,0.1875
3554,0,4.3125
3555,1,1.125
3556,1,0.1875
3557,1,0.1875
3558,0,0.3125
3559,1,1.1875
3560,1,1.25
3561,0,4.3125
3562,1,0.0625
3563,1,0.1875
3564,1,1.3125
3565,0,0.1875
3566,0,0.1875
3567,1,0.1875
3568,1,1.25
3569,1,0.1875
3570,1,1.3125
3571,1,0.1875
3572,1,1.1875
3573,0,4.0625
3574,1,1.375
3575,0,0.25
3576,1,1.25
3577,1,1.3125
3578,1,1.1875
3579,0,4.3125
3580,1,0.125
3581,1,1.1875
3582,0,4.0625
3583,1,1.4375
3584,1,1.25
3585,1,1.25
3586,0,4.3125
3587,1,1.125
3588,0,4.3125
3589,0,0.125
3590,0,4.1875
3591,0,4.0625
3592,0,0.3125
3593,1,0.1875
3594,0,0.1875
3595,1,1.3125
3596,1,0.1875
3597,1,0.1875
3598,1,1.1875
3599,1,1.3125
3600,1,0.1875
3601,0,4.3125
3602,0,0.125
3603,1,1.25
3604,1,0.1875
3605,0,4.3125
3606,1,0.125
3607,0,4.25
3608,0,0.125
3609,0,4.375
3610,1,1.125
3611,0,4.0625
3612,0,4.5
3613,0,0.125
3614,0,0.1875
3615,1,1.25
3616,0,4.3125
3617,1,1.125
3618,1,0.25
3619,0,0.1875
3620,1,0.1875
3621,0,4.9375
3622,1,0.125
3623,0,4.5625
3624,0,4.375
3625,0,0.0625
3626,0,0.25
3627,0,0.1875
3628,0,4.25
3629,1,0.0625
3630,1,1.3125
3631,1,0.1875
3632,1,0.1875
3633,1,1.3125
3634,0,0.1875
3635,0,0.1875
3636,1,1.1875
3637,1,1.3125
3638,0,4.75
3639,0,0.1875
3640,1,0.1875
3641,0,4.3125
3642,0,0.125
3643,1,1.3125
3644,1,1.1875
3645,1,1.3125
3646,0,4.4375
3647,1,0.0625
3648,1,0.25
3649,0,0.25
3650,1,1.1875
3651,0,4.0625
3652,1,1.5625
3653,1,1.25
3654,0,4.3125
3655,0,4.25
3656,1,0.125
3657,1,1.25
3658,1,1.25
3659,1,1.25
3660,0,4.375
3661,0,4.625
3662,0,4.4375
3663,0,4.0625
3664,0,0.4375
3665,0,0.1875
3666,0,0.1875
3667,0,4.3125
3668,0,4.4375
3669,1,0.125
3670,0,0.25
3671,0,0.1875
3672,1,1.25
3673,1,0.1875
3674,1,1.25
3675,1,1.25
3676,1,0.1875
3677,1,0.1875
3678,0,4.375
3679,0,0.125
3680,1,0.1875
3681,1,0.1875
3682,1,0.1875
3683,0,4.375
3684,1,1.125
3685,0,0.1875
3686,1,1.3125
3687,0,0.1875
3688,0,4.3125
3689,1,1.1875
3690,1,1.25
3691,0,4.375
3692,0,0.0625
3693,1,1.25
3694,1,1.25
3695,0,4.375
3696,0,4.25
3697,0,0.0625
3698,0,0.25
3699,1,0.1875
3700,0,0.1875
3701,1,1.25
3702,0,4.5
3703,1,1.125
3704,1,1.1875
3705,0,0.3125
3706,0,4.3125
3707,0,4.25
3708,1,0.125
3709,1,0.1875
3710,1,0.1875
3711,1,1.25
3712,1,1.3125
3713,1,1.1875
3714,1,1.3125
3715,1,1.1875
3716,0,4.4375
3717,1,1.1875
3718,0,4.375
3719,0,4.375
3720,1,0.125
3721,1,0.1875
3722,0,0.1875
3723,1,1.25
3724,1,1.25
3725,0,4.3125
3726,1,1.1875
3727,1,1.25
3728,1,1.25
3729,0,4.6875
3730,0,4.3125
3731,1,1.25
3732,0,4.3125
3733,0,4.4375
3734,1,0.125
3735,1,1.1875
3736,1,0.25
3737,0,0.1875
3738,1,1.25
3739,1,1.3125
3740,1,1.1875
3741,0,4.4375
3742,1,1.125
3743,0,4.3125
3744,1,1.1875
3745,1,1.25
3746,1,1.25
3747,0,4.4375
3748,1,1.125
3749,0,4.0625
3750,1,1.5625
3751,0,4.625
3752,1,1.125
3753,1,1.3125
3754,0,4.375
3755,1,0.0625
3756,1,1.25
3757,0,4.625
3758,1,1.1875
3759,1,0.1875
3760,1,1.25
3761,1,1.25
3762,1,1.25
3763,0,4.625
3764,1,1.25
3765,0,4.5625
3766,0,4.5
3767,1,0.125
3768,0,4.0625
3769,0,4.5625
3770,1,0.125
3771,0,0.1875
3772,0,4.75
3773,1,0.0625
3774,1,0.1875
3775,1,1.25
3776,0,4.375
3777,0,4.3125
3778,0,4.3125
3779,1,1.125
3780,1,1.3125
3781,0,0.1875
3782,0,4.4375
3783,0,4.1875
3784,1,1.25
3785,0,0.1875
3786,0,0.1875
3787,1,0.1875
3788,1,1.25
3789,1,0.1875
3790,0,0.1875
3791,0,4.375
3792,1,0.125
3793,1,0.1875
3794,1,1.3125
3795,0,0.1875
3796,0,4.3125
3797,0,4.0625
3798,0,4.875
3799,1,0.0625
3800,0,0.25
3801,0,4.5
3802,0,0.125
3803,1,1.25
3804,1,0.1875
3805,1,0.1875
3806,0,4.4375
3807,0,0.0625
3808,1,0.1875
3809,1,1.25
3810,1,0.25
3811,1,0.1875
3812,1,0.1875
3813,1,0.1875
3814,1,1.25
3815,0,0.1875
3816,0,0.1875
3817,0,0.1875
3818,0,0.3125
3819,0,0.1875
3820,1,1.1875
3821,1,1.3125
3822,0,0.1875
3823,0,4.6875
3824,1,1.1875
3825,1,1.25
3826,1,1.25
3827,0,4.3125
3828,1,1.1875
3829,0,4.3125
3830,1,1.1875
3831,1,1.1875
3832,0,4.0625
3833,1,1.5
3834,0,4.0625
3835,0,4.625
3836,1,0.125
3837,0,0.1875
3838,0,0.1875
3839,1,0.1875
3840,1,1.25
3841,1,1.25
3842,1,1.25
3843,1,1.25
3844,1,1.25
3845,1,1.25
3846,1,1.25
3847,1,1.3125
3848,1,1.1875
3849,1,1.3125
3850,1,1.1875
3851,0,4.5625
3852,0,4.25
3853,0,4.0625
3854,1,1.625
3855,0,4.625
3856,0,4.5
3857,1,0.125
3858,1,1.25
3859,0,4.625
3860,0,4.0625
3861,1,0.3125
3862,0,4.3125
3863,0,0.1875
3864,1,1.1875
3865,1,1.25
3866,1,0.25
3867,0,0.1875
3868,1,0.1875
3869,1,1.25
3870,1,1.25
3871,0,4.375
3872,1,1.1875
3873,0,0.1875
3874,1,1.25
3875,1,1.25
3876,1,1.25
3877,0,4.375
3878,1,1.1875
3879,0,4.9375
3880,1,1.25
3881,1,1.1875
3882,1,1.3125
3883,1,1.1875
3884,0,4.6875
3885,1,1.1875
3886,0,4.9375
3887,0,4.375
3888,0,0.125
3889,1,0.1875
3890,1,1.1875
3891,0,4.0625
3892,0,5.0
3893,1,0.125
3894,1,1.25
3895,0,4.375
3896,0,0.125
3897,1,1.25
3898,0,0.1875
3899,0,0.1875
3900,1,1.25
3901,1,0.1875
3902,0,0.25
3903,0,4.4375
3904,0,4.25
3905,1,1.1875
3906,1,0.1875
3907,1,1.25
3908,1,0.1875
3909,1,0.1875
3910,0,4.0625
3911,1,0.5
3912,1,0.1875
3913,1,1.3125
3914,0,4.3125
3915,1,1.1875
3916,1,0.1875
3917,1,1.25
3918,0,0.1875
3919,0,0.1875
3920,1,1.25
3921,0,4.375
3922,0,0.125
3923,0,4.3125
3924,0,0.125
3925,0,4.0625
3926,0,0.4375
3927,0,4.375
3928,0,0.125
3929,0,4.375
3930,1,0.125
3931,1,0.1875
3932,1,1.3125
3933,0,4.5
3934,0,0.125
3935,0,4.5625
3936,0,4.25
3937,0,0.125
3938,1,0.1875
3939,0,4.0625
3940,1,0.375
3941,1,1.25
3942,1,0.1875
3943,1,1.25
3944,1,1.25
3945,0,4.3125
3946,1,0.125
3947,1,1.1875
3948,0,0.1875
3949,0,0.1875
3950,0,4.0625
3951,0,0.375
3952,1,0.1875
3953,1,0.1875
3954,0,0.25
3955,0,0.1875
3956,1,1.25
3957,1,0.1875
3958,1,1.25
3959,1,1.25
3960,0,4.4375
3961,0,4.125
3962,0,4.0625
3963,1,1.3125
3964,1,1.3125
3965,1,1.1875
3966,0,4.0625
3967,0,4.4375
3968,1,1.1875
3969,0,4.25
3970,0,0.125
3971,1,0.1875
3972,1,0.1875
3973,1,1.3125
3974,0,4.3125
3975,0,0.0625
3976,0,0.25
3977,0,4.25
3978,0,0.0625
3979,0,4.0625
3980,1,1.4375
3981,0,4.0625
3982,1,1.375
3983,0,4.0625
3984,1,1.5
3985,1,1.1875
3986,0,4.3125
3987,0,0.125
3988,1,1.1875
3989,0,4.0625
3990,0,4.4375
3991,0,0.125
3992,1,1.25
3993,0,4.25
3994,1,0.125
3995,1,1.3125
3996,1,1.1875
3997,0,4.3125
3998,1,1.125
3999,0,4.0625
4000,1,0.4375
4001,0,0.1875
4002,0,0.1875
4003,1,1.3125
4004,0,4.1875
4005,0,4.0625
4006,1,0.375
4007,1,0.1875
4008,1,1.1875
4009,0,4.0625
4010,1,1.5
4011,1,0.1875
4012,1,1.1875
4013,0,4.0625
4014,0,4.4375
4015,0,4.25
4016,1,0.125
4017,0,4.375
4018,1,0.125
4019,0,0.1875
4020,1,0.25
4021,1,1.1875
4022,0,4.375
4023,1,1.125
4024,1,0.1875
4025,1,1.3125
4026,1,0.1875
4027,1,1.1875
4028,0,4.0625
4029,1,0.375
4030,0,0.1875
4031,1,1.3125
4032,0,0.1875
4033,1,1.1875
4034,1,1.3125
4035,1,1.1875
4036,0,4.0625
4037,1,1.4375
4038,1,1.25
4039,1,1.25
4040,1,1.1875
4041,1,1.3125
4042,0,4.3125
4043,0,4.125
4044,1,1.1875
4045,1,1.25
4046,0,4.3125
4047,1,1.125
4048,0,4.0625
4049,1,1.375
4050,1,1.3125
4051,0,4.25
4052,0,4.1875
4053,1,1.1875
4054,0,4.3125
4055,0,0.0625
4056,0,4.25
4057,1,0.125
4058,1,0.25
4059,0,0.1875
4060,0,0.25
4061,1,1.1875
4062,1,1.3125
4063,1,1.1875
4064,0,4.3125
4065,1,1.125
4066,1,1.3125
4067,0,4.25
4068,1,1.1875
4069,1,1.25
4070,1,1.25
4071,1,1.25
4072,0,4.3125
4073,1,1.125
4074,1,1.25
4075,1,1.25
4076,0,4.3125
4077,0,4.1875
4078,1,1.1875
4079,1,1.25
4080,1,1.25
4081,1,1.25
4082,0,4.375
4083,0,4.125
4084,0,4.0625
4085,1,1.3125
4086,0,4.3125
4087,0,4.25
4088,1,1.125
4089,1,1.1875
4090,0,4.0625
4091,1,1.4375
4092,0,4.3125
4093,1,1.1875
4094,0,4.25
4095,0,4.1875
4096,0,0.125
4097,0,0.1875
4098,0,4.25
4099,1,1.1875
4100,1,0.25
4101,0,0.1875
4102,1,0.1875
4103,1,1.25
4104,0,0.1875
4105,0,4.3125
4106,1,1.1875
4107,0,4.25
4108,1,1.25
4109,0,4.25
4110,1,0.125
4111,0,0.1875
4112,1,0.25
4113,0,0.1875
4114,1,1.25
4115,0,4.3125
4116,0,0.125
4117,0,0.1875
4118,1,1.1875
4119,1,1.3125
4120,1,1.1875
4121,0,4.0625
4122,1,1.4375
4123,1,1.25
4124,1,1.25
4125,1,1.25
4126,0,4.25
4127,1,1.1875
4128,0,4.25
4129,0,4.0625
4130,1,1.3125
4131,1,1.3125
4132,1,1.1875
4133,0,4.0625
4134,0,4.4375
4135,1,1.1875
4136,0,4.375
4137,0,0.0625
4138,0,4.375
4139,0,0.125
4140,0,4.375
4141,0,4.25
4142,0,4.0625
4143,1,0.375
4144,1,0.1875
4145,0,4.375
4146,0,4.1875
4147,0,0.125
4148,0,4.375
4149,1,0.125
4150,0,0.1875
4151,1,1.3125
4152,0,4.25
4153,0,0.125
4154,1,1.3125
4155,1,0.1875
4156,1,1.1875
4157,1,0.25
4158,1,1.25
4159,1,1.25
4160,1,1.25
4161,0,4.4375
4162,1,1.1875
4163,0,0.1875
4164,1,1.25
4165,1,1.25
4166,0,4.375
4167,0,4.1875
4168,0,0.125
4169,1,1.25
4170,1,1.25
4171,1,1.25
4172,1,1.25
4173,1,1.25
4174,0,4.25
4175,0,4.0625
4176,0,4.375
4177,1,0.0625
4178,0,0.25
4179,1,1.25
4180,1,1.25
4181,0,4.375
4182,0,0.125
4183,0,4.375
4184,0,0.125
4185,0,4.25
4186,1,0.125
4187,1,1.3125
4188,0,0.1875
4189,1,0.1875
4190,1,0.1875
4191,1,1.25
4192,0,4.3125
4193,1,0.125
4194,1,0.1875
4195,0,4.4375
4196,1,0.125
4197,0,0.1875
4198,0,4.0625
4199,0,0.4375
4200,0,4.25
4201,1,1.1875
4202,1,0.1875
4203,1,1.25
4204,1,0.1875
4205,1,0.25
4206,0,0.1875
4207,1,1.25
4208,1,0.1875
4209,1,1.25
4210,1,0.1875
4211,0,4.4375
4212,0,0.0625
4213,0,4.0625
4214,1,0.4375
4215,1,1.3125
4216,0,4.25
4217,0,4.0625
4218,0,0.375
4219,0,4.3125
4220,0,4.25
4221,1,1.1875
4222,0,0.25
4223,0,0.1875
4224,1,0.1875
4225,0,0.1875
4226,1,1.25
4227,0,0.1875
4228,0,0.1875
4229,0,0.1875
4230,1,0.25
4231,1,0.1875
4232,1,1.25
4233,1,1.25
4234,1,1.25
4235,1,1.1875
4236,0,4.0625
4237,1,1.5
4238,0,4.3125
4239,1,1.1875
4240,1,1.25
4241,0,4.3125
4242,0,4.25
4243,1,1.1875
4244,1,1.25
4245,1,1.25
4246,0,4.3125
4247,1,1.1875
4248,1,1.25
4249,0,4.3125
4250,0,4.25
4251,1,1.1875
4252,0,4.3125
4253,1,1.1875
4254,0,4.375
4255,1,1.125
4256,0,0.1875
4257,1,1.3125
4258,0,0.1875
4259,0,4.25
4260,0,4.0625
4261,0,4.625
4262,0,0.125
4263,0,4.6875
4264,0,4.1875
4265,0,4.3125
4266,1,0.1875
4267,0,0.1875
4268,0,4.375
4269,1,2.25
4270,1,1.3125
4271,0,0.1875
4272,1,0.1875
4273,0,4.25
4274,1,1.1875
4275,0,4.25
4276,0,0.125
4277,0,4.3125
4278,0,4.1875
4279,1,0.125
4280,0,0.1875
4281,1,0.1875
4282,1,0.1875
4283,1,0.25
4284,0,4.25
4285,0,4.1875
4286,0,4.3125
4287,1,0.0625
4288,1,1.25
4289,1,0.1875
4290,0,0.1875
4291,0,0.1875
4292,1,1.3125
4293,1,0.1875
4294,0,4.375
4295,0,4.1875
4296,1,0.125
4297,0,4.375
4298,0,0.0625
4299,0,4.375
4300,1,0.125
4301,0,4.4375
4302,0,0.125
4303,0,0.1875
4304,0,0.1875
4305,0,4.4375
4306,1,0.125
4307,1,0.1875
4308,1,0.1875
4309,1,0.1875
4310,1,1.3125
4311,1,0.1875
4312,1,1.25
4313,1,0.1875
4314,1,1.25
4315,1,0.1875
4316,0,0.25
4317,1,0.1875
4318,1,1.25
4319,1,1.25
4320,0,4.3125
4321,0,4.25
4322,0,4.25
4323,0,0.0625
4324,1,0.1875
4325,0,4.0625
4326,0,4.625
4327,0,4.3125
4328,0,0.125
4329,0,4.4375
4330,0,0.125
4331,0,4.5
4332,1,0.125
4333,0,4.4375
4334,0,4.5625
4335,0,0.125
4336,1,0.1875
4337,0,0.1875
4338,0,0.1875
4339,1,1.25
4340,0,0.25
4341,1,0.1875
4342,0,0.1875
4343,0,4.5625
4344,1,0.125
4345,0,4.4375
4346,1,1.1875
4347,0,4.375
4348,1,0.125
4349,0,4.3125
4350,0,4.5625
4351,0,0.0625
4352,1,1.3125
4353,0,0.1875
4354,1,0.1875
4355,1,1.3125
4356,1,1.3125
4357,0,4.0625
4358,1,1.125
4359,0,0.1875
4360,0,4.375
4361,1,0.125
4362,0,0.1875
4363,0,0.1875
4364,0,4.375
4365,0,4.375
4366,0,4.625
4367,1,1.1875
4368,0,4.5625
4369,0,0.125
4370,0,4.3125
4371,0,0.125
4372,1,0.1875
4373,0,0.1875
4374,0,4.0625
4375,0,4.75
4376,1,0.0625
4377,0,4.0625
4378,0,4.9375
4379,1,0.125
4380,0,0.1875
4381,0,4.6875
4382,1,0.125
4383,1,0.1875
4384,0,4.375
4385,1,0.0625
4386,0,0.3125
4387,0,4.3125
4388,1,0.125
4389,0,4.5625
4390,0,0.125
4391,1,1.25
4392,1,1.25
4393,0,0.1875
4394,0,0.25
4395,1,0.1875
4396,0,0.1875
4397,1,0.1875
4398,0,0.1875
4399,0,4.3125
4400,0,4.375
4401,1,0.125
4402,1,0.1875
4403,1,1.1875
4404,0,4.0625
4405,1,0.5
4406,0,0.1875
4407,0,4.375
4408,0,4.125
4409,0,4.0625
4410,0,0.3125
4411,0,4.375
4412,1,0.1875
4413,1,0.1875
4414,0,0.1875
4415,1,0.1875
4416,1,0.1875
4417,1,0.1875
4418,1,2.3125
4419,1,1.25
4420,0,0.1875
4421,0,4.375
4422,0,0.125
4423,1,0.1875
4424,1,2.3125
4425,0,0.1875
4426,1,0.25
4427,0,4.3125
4428,1,1.125
4429,0,4.3125
4430,0,4.25
4431,1,1.1875
4432,1,0.1875
4433,0,4.5
4434,0,4.125
4435,1,0.125
4436,0,4.4375
4437,1,0.125
4438,1,0.1875
4439,0,0.1875
4440,0,0.1875
4441,1,2.3125
4442,1,1.25
4443,0,4.375
4444,0,4.1875
4445,1,0.125
4446,1,0.1875
4447,0,0.1875
4448,0,4.4375
4449,1,1.1875
4450,1,0.1875
4451,0,0.1875
4452,0,4.5
4453,0,0.125
4454,1,1.1875
4455,0,4.0625
4456,0,4.5625
4457,1,1.25
4458,1,1.1875
4459,1,1.3125
4460,1,1.1875
4461,0,4.0625
4462,1,1.5625
4463,0,0.3125
4464,0,4.6875
4465,1,1.1875
4466,1,1.1875
4467,0,4.0625
4468,1,1.5
4469,0,4.375
4470,0,4.5
4471,1,0.125
4472,1,0.1875
4473,1,0.1875
4474,0,4.375
4475,1,1.25
4476,0,4.375
4477,0,0.125
4478,1,1.1875
4479,1,0.25
4480,0,0.1875
4481,0,0.1875
4482,1,1.25
4483,0,0.1875
4484,1,1.25
4485,1,1.3125
4486,1,1.1875
4487,1,1.3125
4488,1,1.1875
4489,0,4.5
4490,1,1.125
4491,0,4.0625
4492,0,4.75
4493,0,4.5
4494,0,0.125
4495,0,4.375
4496,1,0.0625
4497,1,1.25
4498,0,0.1875
4499,1,0.25
4500,1,1.25
4501,0,0.1875
4502,0,4.3125
4503,0,0.125
4504,0,4.3125
4505,1,0.125
4506,1,0.25
4507,1,0.1875
4508,1,0.1875
4509,0,4.375
4510,1,0.0625
4511,0,0.25
4512,1,0.25
4513,0,4.4375
4514,1,1.1875
4515,0,4.375
4516,1,1.1875
4517,1,1.1875
4518,0,0.1875
4519,1,1.3125
4520,0,4.3125
4521,0,4.25
4522,1,0.125
4523,1,0.1875
4524,0,4.375
4525,0,0.125
4526,1,0.1875
4527,0,0.1875
4528,0,4.375
4529,0,0.125
4530,0,4.375
4531,0,0.125
4532,1,1.3125
4533,0,0.1875
4534,0,0.1875
4535,0,0.1875
4536,1,0.1875
4537,1,1.3125
4538,0,0.1875
4539,0,4.3125
4540,1,1.25
4541,1,0.1875
4542,0,4.375
4543,1,0.125
4544,0,4.4375
4545,0,4.375
4546,0,0.125
4547,1,0.1875
4548,0,0.1875
4549,1,0.1875
4550,1,1.25
4551,0,0.25
4552,1,1.1875
4553,0,0.25
4554,1,1.25
4555,1,1.25
4556,1,1.1875
4557,0,4.375
4558,1,1.1875
4559,1,1.25
4560,0,4.375
4561,0,4.3125
4562,1,1.1875
4563,0,4.4375
4564,0,4.0625
4565,0,0.375
4566,0,0.1875
4567,1,0.25
4568,0,0.1875
4569,0,0.1875
4570,1,0.1875
4571,1,1.3125
4572,0,4.625
4573,1,0.125
4574,1,1.1875
4575,0,0.1875
4576,1,0.25
4577,0,0.1875
4578,0,0.1875
4579,0,4.6875
4580,0,4.375
4581,0,4.3125
4582,0,0.1875
4583,1,1.1875
4584,1,1.25
4585,0,4.5
4586,1,0.125
4587,1,1.25
4588,1,1.25
4589,1,1.25
4590,0,4.6875
4591,0,4.0625
4592,1,1.4375
4593,1,1.3125
4594,0,4.4375
4595,0,4.25
4596,0,4.3125
4597,0,4.3125
4598,0,4.3125
4599,1,0.125
4600,1,0.1875
4601,1,0.1875
4602,0,4.375
4603,1,0.125
4604,0,0.1875
4605,0,4.3125
4606,0,4.5
4607,0,4.0625
4608,1,0.4375
4609,1,1.25
4610,1,1.25
4611,1,0.1875
4612,1,1.25
4613,0,0.25
4614,1,0.1875
4615,0,0.1875
4616,1,1.25
4617,0,4.375
4618,0,4.125
4619,0,4.0625
4620,1,0.375
4621,1,1.25
4622,1,1.25
4623,1,1.25
4624,0,0.1875
4625,1,1.25
4626,1,1.25
4627,0,4.4375
4628,1,1.1875
4629,1,1.1875
4630,0,4.375
4631,0,4.1875
4632,0,0.125
4633,0,0.1875
4634,0,4.0625
4635,1,1.4375
4636,1,0.1875
4637,1,1.3125
4638,1,1.1875
4639,1,0.25
4640,0,0.25
4641,0,4.25
4642,1,1.25
4643,1,1.1875
4644,1,1.3125
4645,0,4.25
4646,0,4.0625
4647,0,4.5
4648,0,4.25
4649,0,4.25
4650,1,1.125
4651,0,4.3125
4652,1,1.125
4653,0,0.25
4654,1,1.25
4655,0,4.4375
4656,0,4.5
4657,0,4.25
4658,1,1.125
4659,1,0.1875
4660,0,4.0625
4661,0,4.0625
4662,1,1.125
4663,1,1.3125
4664,0,4.375
4665,1,1.125
4666,0,4.0625
4667,0,0.625
4668,1,0.1875
4669,0,0.1875
4670,1,0.1875
4671,0,4.0625
4672,1,1.5
4673,1,1.25
4674,1,0.25
4675,1,1.1875
4676,0,4.0625
4677,1,1.4375
4678,0,0.1875
4679,0,0.1875
4680,0,4.0625
4681,1,1.4375
4682,0,4.0625
4683,0,4.5625
4684,1,1.1875
4685,1,0.1875
4686,0,0.1875
4687,1,0.1875
4688,1,1.3125
4689,1,1.1875
4690,1,1.3125
4691,1,1.1875
4692,0,4.375
4693,1,1.125
4694,0,4.0625
4695,1,1.125
4696,0,4.0625
4697,1,1.4375
4698,0,4.0625
4699,1,1.4375
4700,0,4.0625
4701,0,4.5
4702,1,1.25
4703,1,1.1875
4704,0,4.4375
4705,0,0.125
4706,1,0.1875
4707,0,4.0625
4708,1,0.5625
4709,1,0.1875
4710,1,1.25
4711,1,0.25
4712,0,4.3125
4713,0,0.0625
4714,0,0.25
4715,1,1.25
4716,0,4.375
4717,0,4.0625
4718,0,4.75
4719,1,1.125
4720,0,4.0625
4721,1,1.5
4722,1,1.3125
4723,1,1.1875
4724,0,4.375
4725,1,1.125
4726,1,1.3125
4727,1,1.1875
4728,0,4.375
4729,1,1.125
4730,0,4.375
4731,0,0.125
4732,0,4.25
4733,1,0.1875
4734,0,0.1875
4735,1,1.25
4736,1,1.25
4737,0,0.1875
4738,0,4.3125
4739,0,4.0625
4740,0,4.5625
4741,0,0.125
4742,1,0.1875
4743,1,1.25
4744,0,4.375
4745,0,0.125
4746,0,4.3125
4747,1,0.125
4748,1,1.25
4749,1,0.1875
4750,1,1.25
4751,1,0.1875
4752,1,0.25
4753,1,1.25
4754,1,1.25
4755,0,4.375
4756,1,1.1875
4757,1,0.1875
4758,0,4.3125
4759,1,0.125
4760,0,0.1875
4761,0,4.4375
4762,0,0.125
4763,1,0.1875
4764,1,0.1875
4765,0,4.0625
4766,0,0.5
4767,1,0.1875
4768,1,0.1875
4769,1,0.1875
4770,1,0.1875
4771,1,1.3125
4772,1,0.1875
4773,1,1.1875
4774,1,1.3125
4775,0,0.1875
4776,1,0.1875
4777,1,0.1875
4778,1,1.25
4779,0,0.25
4780,0,4.0625
4781,1,1.125
4782,1,0.25
4783,0,4.3125
4784,0,0.125
4785,1,1.3125
4786,1,0.1875
4787,1,1.1875
4788,1,0.25
4789,1,1.25
4790,1,1.25
4791,1,1.25
4792,0,4.375
4793,1,1.1875
4794,1,1.1875
4795,0,4.0625
4796,1,1.5625
4797,0,4.375
4798,0,4.0625
4799,1,1.5
4800,1,1.3125
4801,0,4.0625
4802,1,1.1875
4803,1,1.1875
4804,1,1.25
4805,1,1.25
4806,1,1.25
4807,1,1.3125
4808,0,4.1875
4809,1,1.25
4810,1,1.1875
4811,0,4.0625
4812,1,1.375
4813,0,4.0625
4814,0,4.5
4815,0,4.1875
4816,1,1.25
4817,1,1.1875
4818,1,1.3125
4819,0,4.0625
4820,0,0.125
4821,0,4.3125
4822,0,0.125
4823,1,0.1875
4824,0,4.3125
4825,1,1.125
4826,1,0.1875
4827,1,1.3125
4828,1,0.1875
4829,0,0.1875
4830,1,1.25
4831,0,4.3125
4832,0,4.25
4833,1,0.0625
4834,1,0.25
4835,1,0.25
4836,1,0.1875
4837,0,4.3125
4838,1,0.0625
4839,0,4.0625
4840,1,1.5
4841,0,4.375
4842,0,4.375
4843,1,0.125
4844,0,0.1875
4845,1,1.1875
4846,0,4.0625
4847,0,0.5
4848,0,0.1875
4849,1,0.1875
4850,1,1.25
4851,0,0.1875
4852,1,0.25
4853,1,0.1875
4854,1,0.1875
4855,0,0.1875
4856,1,1.1875
4857,1,0.25
4858,1,0.25
4859,1,1.1875
4860,1,0.1875
4861,0,0.25
4862,1,1.25
4863,1,1.25
4864,0,4.3125
4865,1,0.0625
4866,0,4.25
4867,0,4.0625
4868,0,0.375
4869,1,0.1875
4870,1,1.1875
4871,1,1.3125
4872,1,1.1875
4873,0,4.0625
4874,0,0.5
4875,0,4.4375
4876,0,4.1875
4877,1,0.125
4878,1,0.1875
4879,0,0.25
4880,1,1.25
4881,1,0.1875
4882,0,4.375
4883,1,1.1875
4884,0,0.1875
4885,0,0.1875
4886,1,0.1875
4887,0,0.1875
4888,1,0.25
4889,0,4.4375
4890,0,0.125
4891,1,0.1875
4892,0,4.0625
4893,1,1.4375
4894,1,1.3125
4895,0,4.3125
4896,1,1.1875
4897,0,4.3125
4898,1,0.125
4899,0,4.375
4900,1,1.1875
4901,1,1.1875
4902,0,4.0625
4903,1,1.5
4904,0,0.1875
4905,1,1.3125
4906,0,4.3125
4907,0,4.0625
4908,0,0.375
4909,0,4.375
4910,0,4.1875
4911,0,0.125
4912,0,4.0625
4913,1,1.4375
4914,1,0.25
4915,0,4.3125
4916,0,0.125
4917,0,4.375
4918,0,4.25
4919,1,0.125
4920,1,0.25
4921,1,1.1875
4922,1,0.1875
4923,0,0.25
4924,1,1.25
4925,1,0.1875
4926,1,0.1875
4927,1,1.25
4928,0,4.4375
4929,1,0.125
4930,1,0.1875
4931,0,0.1875
4932,0,4.375
4933,0,4.25
4934,0,4.25
4935,0,0.125
4936,0,4.4375
4937,0,4.375
4938,0,4.4375
4939,1,1.125
4940,1,0.1875
4941,0,4.0625
4942,0,4.625
4943,1,1.125
4944,1,0.1875
4945,0,0.1875
4946,1,1.3125
4947,0,4.25
4948,1,1.1875
4949,1,0.25
4950,1,1.1875
4951,1,0.1875
4952,0,4.0625
4953,1,1.375
4954,1,1.3125
4955,0,0.1875
4956,0,4.3125
4957,0,4.1875
4958,1,1.1875
4959,0,4.25
4960,0,0.125
4961,1,1.25
4962,1,1.25
4963,0,4.3125
4964,1,1.125
4965,0,4.3125
4966,0,0.125
4967,0,4.3125
4968,1,0.125
4969,1,0.1875
4970,1,1.25
4971,0,4.3125
4972,1,1.1875
4973,1,0.1875
4974,1,0.1875
4975,0,4.3125
4976,1,0.125
4977,0,0.1875
4978,0,4.3125
4979,1,1.125
4980,0,4.375
4981,0,0.125
4982,0,0.1875
4983,1,1.25
4984,1,0.1875
4985,1,0.1875
4986,1,1.3125
4987,1,0.1875
4988,0,4.375
4989,0,0.125
4990,0,4.3125
4991,0,4.25
4992,0,0.125
4993,1,0.1875
4994,1,0.1875
4995,0,4.0625
4996,0,0.4375
4997,1,1.1875
4998,0,0.25
4999,0,0.1875
5000,1,1.25
5001,1,0.1875
5002,1,1.25
5003,1,0.1875
5004,0,4.375
5005,1,1.1875
5006,0,4.3125
5007,1,1.1875
5008,1,1.1875
5009,1,1.3125
5010,0,4.3125
5011,1,1.1875
5012,1,1.1875
5013,1,1.3125
5014,1,1.1875
5015,1,1.25
5016,1,1.25
5017,1,1.25
5018,0,4.375
5019,0,4.3125
5020,1,1.125
5021,1,1.3125
5022,0,4.375
5023,1,0.125
5024,1,1.25
5025,1,1.25
5026,1,1.25
5027,1,1.25
5028,1,1.25
5029,0,4.4375
5030,1,1.1875
5031,1,1.1875
5032,0,4.0625
5033,1,1.4375
5034,0,0.25
5035,1,1.25
5036,0,4.3125
5037,1,1.1875
5038,0,4.3125
5039,1,1.1875
5040,1,1.1875
5041,1,1.3125
5042,1,1.25
5043,0,0.1875
5044,0,0.1875
5045,0,4.3125
5046,0,4.1875
5047,1,1.1875
5048,0,4.3125
5049,0,4.25
5050,1,1.25
5051,0,4.25
5052,0,4.0625
5053,1,1.375
5054,0,0.1875
5055,1,1.3125
5056,1,1.1875
5057,0,4.0625
5058,1,1.4375
5059,1,1.3125
5060,1,1.1875
5061,1,1.3125
5062,1,1.1875
5063,0,4.0625
5064,0,4.5625
5065,1,0.125
5066,1,1.25
5067,1,1.25
5068,1,1.25
5069,0,4.4375
5070,1,1.125
5071,0,4.0625
5072,0,4.5625
5073,0,0.125
5074,1,0.1875
5075,0,0.25
5076,1,1.25
5077,0,4.5
5078,1,1.125
5079,1,1.3125
5080,0,4.3125
5081,0,4.5625
5082,1,1.125
5083,1,1.3125
5084,1,0.1875
5085,1,1.25
5086,0,4.375
5087,1,1.1875
5088,0,4.3125
5089,1,1.1875
5090,1,1.25
5091,1,0.1875
5092,0,4.5
5093,1,1.125
5094,0,4.0625
5095,0,4.375
5096,1,1.1875
5097,1,0.1875
5098,1,1.25
5099,0,4.75
5100,0,0.125
5101,1,1.25
5102,1,1.25
5103,1,1.25
5104,0,4.0625
5105,1,1.1875
5106,0,0.1875
5107,1,1.25
5108,0,4.0625
5109,0,4.5625
5110,0,4.875
5111,1,0.125
5112,1,1.3125
5113,1,0.1875
5114,0,4.75
5115,0,0.125
5116,1,0.1875
5117,1,0.1875
5118,0,4.75
5119,1,1.125
5120,0,0.1875
5121,1,0.1875
5122,1,1.3125
5123,0,0.1875
5124,1,1.25
5125,1,0.1875
5126,0,4.375
5127,0,0.125
5128,1,1.25
5129,1,1.25
5130,1,1.25
5131,1,1.25
5132,0,5.0
5133,1,1.125
5134,0,4.0625
5135,1,1.125
5136,1,1.25
5137,0,4.0625
5138,0,4.5
5139,0,0.0625
5140,1,0.1875
5141,0,0.25
5142,0,4.75
5143,1,1.1875
5144,0,4.3125
5145,0,4.1875
5146,0,4.3125
5147,0,0.125
5148,1,1.1875
5149,0,0.3125
5150,0,0.1875
5151,0,4.6875
5152,0,0.0625
5153,0,4.0625
5154,0,0.4375
5155,0,4.125
5156,1,1.125
5157,0,0.1875
5158,1,0.1875
5159,0,0.1875
5160,1,0.25
5161,0,0.1875
5162,0,4.3125
5163,0,4.3125
5164,1,1.125
5165,0,0.1875
5166,0,0.1875
5167,0,0.1875
5168,0,4.0625
5169,0,0.0625
5170,0,0.25
5171,0,0.1875
5172,0,4.5625
5173,1,1.125
5174,1,0.1875
5175,1,1.25
5176,1,1.25
5177,0,4.4375
5178,0,0.125
5179,1,1.25
5180,1,1.25
5181,1,1.25
5182,0,4.75
5183,1,1.1875
5184,1,1.25
5185,1,1.25
5186,1,1.25
5187,1,1.25
5188,1,1.25
5189,0,4.1875
5190,1,1.1875
5191,1,1.1875
5192,1,1.3125
5193,1,1.1875
5194,0,4.0625
5195,0,4.4375
5196,0,0.125
5197,1,0.25
5198,1,1.1875
5199,0,4.4375
5200,1,1.125
5201,0,0.1875
5202,0,4.0625
5203,0,4.5
5204,0,0.0625
5205,1,0.25
5206,1,0.25
5207,1,1.1875
5208,0,0.1875
5209,1,0.25
5210,0,0.1875
5211,0,4.375
5212,1,0.125
5213,0,4.4375
5214,1,1.125
5215,0,0.25
5216,1,1.25
5217,0,4.4375
5218,1,1.1875
5219,1,1.25
5220,0,4.3125
5221,0,4.1875
5222,0,0.125
5223,0,4.375
5224,1,1.125
5225,1,1.3125
5226,0,4.25
5227,0,0.125
5228,1,1.25
5229,0,4.3125
5230,0,4.1875
5231,0,0.125
5232,0,4.3125
5233,1,1.125
5234,1,1.3125
5235,1,1.1875
5236,1,0.1875
5237,1,1.3125
5238,1,1.1875
5239,1,1.3125
5240,1,1.1875
5241,0,4.0625
5242,1,1.625
5243,1,1.25
5244,1,1.25
5245,0,4.375
5246,1,1.125
5247,1,1.25
5248,0,4.3125
5249,0,4.375
5250,0,4.3125
5251,0,4.1875
5252,0,4.3125
5253,1,0.125
5254,0,4.3125
5255,0,4.25
5256,1,1.1875
5257,1,1.25
5258,0,0.1875
5259,0,4.4375
5260,1,1.125
5261,1,1.3125
5262,1,1.1875
5263,1,1.3125
5264,0,4.3125
5265,0,4.3125
5266,0,0.125
5267,1,1.1875
5268,0,4.375
5269,1,1.125
5270,0,4.3125
5271,1,0.125
5272,1,1.25
5273,0,4.3125
5274,1,0.125
5275,0,0.1875
5276,0,0.1875
5277,1,1.3125
5278,0,4.25
5279,1,1.25
5280,0,4.5
5281,0,4.3125
5282,1,1.1875
5283,0,0.1875
5284,1,1.1875
5285,0,4.0625
5286,0,4.4375
5287,0,4.25
5288,0,4.25
5289,1,1.125
5290,0,4.3125
5291,0,4.25
5292,0,0.0625
5293,1,1.3125
5294,1,1.25
5295,1,0.1875
5296,1,0.1875
5297,0,4.375
5298,0,0.125
5299,1,0.1875
5300,1,1.3125
5301,1,1.1875
5302,0,4.0625
5303,1,1.625
5304,0,4.25
5305,0,4.375
5306,0,0.125
5307,0,4.3125
5308,1,1.125
5309,1,0.25
5310,1,0.1875
5311,1,0.25
5312,0,0.1875
5313,0,0.1875
5314,1,0.1875
5315,1,1.1875
5316,1,0.25
5317,1,1.25
5318,1,1.25
5319,1,1.25
5320,1,1.25
5321,1,1.25
5322,0,4.3125
5323,0,4.3125
5324,0,4.0625
5325,0,4.4375
5326,1,1.1875
5327,0,4.375
5328,1,1.1875
5329,1,0.1875
5330,0,0.1875
5331,0,4.4375
5332,1,0.0625
5333,1,0.25
5334,0,4.375
5335,1,0.125
5336,1,0.1875
5337,1,0.25
5338,0,0.1875
5339,0,4.625
5340,1,0.125
5341,0,0.1875
5342,0,4.0625
5343,1,0.5
5344,0,4.25
5345,1,1.1875
5346,0,4.3125
5347,1,0.0625
5348,1,0.25
5349,0,0.1875
5350,0,4.4375
5351,1,1.125
5352,1,0.1875
5353,1,0.1875
5354,1,1.3125
5355,0,0.1875
5356,1,1.25
5357,0,0.1875
5358,0,4.3125
5359,1,1.125
5360,0,4.3125
5361,1,1.125
5362,1,1.3125
5363,0,4.3125
5364,0,4.125
5365,0,4.25
5366,1,0.125
5367,1,1.1875
5368,1,0.1875
5369,0,4.0625
5370,1,1.375
5371,0,4.0625
5372,1,0.375
5373,0,4.3125
5374,1,1.125
5375,0,4.3125
5376,1,1.125
5377,1,0.25
5378,1,1.25
5379,0,4.25
5380,0,4.25
5381,1,0.0625
5382,1,1.25
5383,1,0.1875
5384,1,0.1875
5385,0,4.0625
5386,0,0.375
5387,1,1.3125
5388,0,4.1875
5389,1,1.25
5390,0,4.25
5391,1,0.125
5392,0,0.1875
5393,0,0.1875
5394,1,1.3125
5395,1,1.25
5396,0,4.25
5397,0,0.125
5398,0,4.3125
5399,1,1.125
5400,1,1.25
5401,0,4.3125
5402,1,1.1875
5403,0,4.25
5404,0,4.25
5405,0,4.125
5406,0,4.0625
5407,1,1.3125
5408,1,1.3125
5409,1,1.1875
5410,1,1.3125
5411,0,0.1875
5412,0,0.1875
5413,1,0.1875
5414,0,4.3125
5415,0,4.1875
5416,1,0.125
5417,0,4.25
5418,0,4.1875
5419,0,0.125
5420,0,0.1875
5421,0,4.3125
5422,0,0.125
5423,0,4.3125
5424,0,4.125
5425,0,4.0625
5426,0,4.375
5427,0,0.125
5428,0,4.4375
5429,0,0.0625
5430,0,4.0625
5431,1,1.5
5432,1,1.3125
5433,0,0.1875
5434,1,1.1875
5435,0,0.1875
5436,1,1.3125
5437,1,1.25
5438,0,4.25
5439,1,1.1875
5440,1,1.25
5441,1,1.25
5442,1,1.25
5443,0,4.375
5444,1,1.1875
5445,1,1.25
5446,1,1.25
5447,0,4.5
5448,0,4.25
5449,0,4.1875
5450,0,4.25
5451,0,0.0625
5452,0,0.25
5453,0,4.4375
5454,0,0.125
5455,0,4.3125
5456,1,0.125
5457,1,0.1875
5458,0,0.1875
5459,0,0.25
5460,0,4.3125
5461,0,0.125
5462,1,0.1875
5463,0,0.1875
5464,1,1.25
5465,1,0.1875
5466,0,0.1875
5467,1,1.3125
5468,1,0.1875
5469,1,0.1875
5470,0,4.4375
5471,0,0.125
5472,0,0.1875
5473,1,1.25
5474,0,4.3125
5475,1,0.0625
5476,0,0.25
5477,0,0.1875
5478,0,4.4375
5479,0,0.125
5480,1,0.1875
5481,1,0.1875
5482,1,0.1875
5483,0,4.375
5484,0,0.125
5485,1,1.1875
5486,0,0.1875
5487,1,0.1875
5488,0,0.25
5489,1,1.25
5490,0,4.3125
5491,0,4.25
5492,0,4.0625
5493,1,0.3125
5494,0,0.1875
5495,0,0.1875
5496,0,0.1875
5497,1,1.25
5498,1,0.1875
5499,0,4.3125
5500,1,1.125
5501,0,4.375
5502,0,0.125
5503,0,4.4375
5504,0,4.1875
5505,1,2.25
5506,0,4.3125
5507,0,0.0625
5508,1,1.25
5509,1,1.25
5510,0,4.3125
5511,0,0.125
5512,1,0.25
5513,0,4.25
5514,0,4.25
5515,1,1.1875
5516,1,1.25
5517,0,4.25
5518,0,0.125
5519,1,1.3125
5520,0,4.25
5521,0,0.125
5522,0,4.375
5523,1,0.125
5524,1,0.1875
5525,1,0.1875
5526,1,1.25
5527,0,0.1875
5528,1,1.25
5529,1,1.3125
5530,1,1.1875
5531,1,1.3125
5532,1,1.1875
5533,1,1.3125
5534,0,4.25
5535,0,4.0625
5536,1,1.4375
5537,1,1.25
5538,1,1.25
5539,1,1.25
5540,1,1.25
5541,1,1.25
5542,1,1.25
5543,0,4.375
5544,1,1.125
5545,1,1.25
5546,1,1.25
5547,0,4.3125
5548,0,4.1875
5549,0,4.0625
5550,1,1.5
5551,0,4.25
5552,1,1.1875
5553,0,4.5
5554,0,4.375
5555,1,0.0625
5556,0,0.25
5557,1,1.1875
5558,1,1.3125
5559,0,4.6875
5560,0,4.25
5561,1,1.1875
5562,1,1.25
5563,0,4.0625
5564,1,0.125
5565,1,0.1875
5566,1,1.1875
5567,0,0.1875
5568,0,4.0625
5569,1,1.875
5570,1,1.25
5571,0,5.0
5572,0,4.1875
5573,1,1.25
5574,0,0.1875
5575,1,1.1875
5576,0,4.0625
5577,1,1.625
5578,0,4.3125
5579,1,0.125
5580,0,0.1875
5581,0,0.1875
5582,1,1.3125
5583,1,1.1875
5584,1,1.3125
5585,1,1.1875
5586,0,4.0625
5587,1,2.0
5588,0,4.4375
5589,1,1.25
5590,0,0.1875
5591,0,4.5
5592,1,1.25
5593,1,1.1875
5594,1,1.3125
5595,1,1.1875
5596,1,1.3125
5597,1,1.1875
5598,1,1.3125
5599,0,4.25
5600,1,1.25
5601,0,4.4375
5602,0,4.0625
5603,1,1.3125
5604,1,1.3125
5605,1,1.1875
5606,1,1.3125
5607,0,4.3125
5608,1,1.25
5609,1,1.1875
5610,1,1.3125
5611,0,4.375
5612,1,1.1875
5613,1,1.25
5614,0,4.3125
5615,0,4.1875
5616,1,1.1875
5617,0,4.375
5618,0,4.1875
5619,0,0.0625
5620,0,4.0625
5621,0,0.375
5622,1,0.1875
5623,0,0.1875
5624,0,0.25
5625,1,1.25
5626,1,1.25
5627,1,1.1875
5628,0,4.375
5629,0,4.5625
5630,0,4.375
5631,1,0.1875
5632,0,4.25
5633,0,0.125
5634,1,0.1875
5635,0,0.1875
5636,1,1.3125
5637,1,0.1875
5638,1,0.1875
5639,1,1.25
5640,1,1.25
5641,1,0.1875
5642,0,4.5
5643,1,0.0625
5644,0,4.3125
5645,0,0.125
5646,1,1.25
5647,0,0.25
5648,0,4.3125
5649,1,0.125
5650,0,4.3125
5651,0,4.3125
5652,0,4.1875
5653,1,1.25
5654,1,0.1875
5655,0,0.1875
5656,0,0.1875
5657,0,4.4375
5658,0,0.0625
5659,1,0.1875
5660,0,4.3125
5661,0,4.3125
5662,1,1.125
5663,1,1.25
5664,1,0.1875
5665,1,1.25
5666,1,1.25
5667,0,4.375
5668,1,0.125
5669,1,1.25
5670,0,0.1875
5671,1,1.25
5672,0,4.375
5673,1,0.125
5674,1,1.25
5675,1,0.1875
5676,0,0.1875
5677,0,0.1875
5678,1,1.25
5679,1,1.25
5680,1,1.25
5681,0,4.4375
5682,1,1.1875
5683,0,4.25
5684,1,1.1875
5685,1,1.1875
5686,0,4.0625
5687,1,1.4375
5688,0,4.0625
5689,0,4.5625
5690,0,0.0625
5691,0,4.0625
5692,1,1.5
5693,0,0.1875
5694,0,4.0625
5695,1,1.8125
5696,1,1.1875
5697,1,1.3125
5698,1,1.1875
5699,0,4.0625
5700,0,4.6875
5701,0,4.5625
5702,1,0.125
5703,1,0.1875
5704,1,1.25
5705,0,4.4375
5706,1,0.125
5707,0,4.625
5708,0,4.6875
5709,0,4.3125
5710,0,0.125
5711,1,1.25
5712,1,0.1875
5713,0,0.1875
5714,0,0.1875
5715,0,0.1875
5716,1,1.3125
5717,0,0.1875
5718,1,1.25
5719,0,4.5625
5720,1,1.125
5721,0,4.0625
5722,0,0.5
5723,1,1.25
5724,1,1.25
5725,0,4.375
5726,1,1.125
5727,1,1.3125
5728,1,1.25
5729,0,4.4375
5730,1,1.125
5731,0,4.3125
5732,0,0.125
5733,1,1.1875
5734,1,0.1875
5735,0,4.0625
5736,1,1.5
5737,0,4.0625
5738,0,0.8125
5739,0,4.375
5740,1,0.125
5741,1,0.1875
5742,1,1.3125
5743,0,0.1875
5744,0,0.1875
5745,1,1.25
5746,0,4.3125
5747,1,0.125
5748,1,0.1875
5749,0,0.25
5750,0,4.3125
5751,1,0.125
5752,1,1.25
5753,0,4.3125
5754,1,1.125
5755,1,1.3125
5756,1,1.25
5757,0,4.375
5758,1,1.125
5759,1,1.3125
5760,1,1.1875
5761,0,4.0625
5762,1,1.5
5763,0,4.375
5764,0,4.25
5765,0,4.375
5766,1,1.125
5767,1,1.3125
5768,0,4.375
5769,1,1.125
5770,0,4.0625
5771,0,4.75
5772,1,0.0625
5773,0,4.0625
5774,1,1.4375
5775,1,0.3125
5776,1,0.1875
5777,1,1.1875
5778,0,4.0625
5779,1,1.4375
5780,0,4.375
5781,1,0.125
5782,0,0.1875
5783,1,0.1875
5784,0,0.1875
5785,0,4.375
5786,0,4.3125
5787,0,4.25
5788,1,1.125
5789,0,0.1875
5790,1,0.25
5791,1,1.25
5792,1,1.25
5793,1,1.25
5794,0,4.3125
5795,0,0.1875
5796,0,4.25
5797,0,4.0625
5798,0,4.375
5799,0,4.0625
5800,1,1.4375
5801,1,1.25
5802,1,1.25
5803,1,1.25
5804,1,1.25
5805,0,4.4375
5806,0,4.1875
5807,0,0.1875
5808,1,1.1875
5809,1,1.25
5810,1,1.25
5811,1,1.25
5812,0,4.375
5813,0,4.25
5814,0,0.125
5815,0,4.3125
5816,1,0.0625
5817,1,1.3125
5818,1,1.1875
5819,1,1.3125
5820,1,1.1875
5821,1,1.3125
5822,0,0.1875
5823,1,1.25
5824,0,4.3125
5825,0,4.4375
5826,0,4.5
5827,0,4.0625
5828,0,4.5
5829,1,1.1875
5830,0,4.5
5831,1,0.125
5832,1,0.1875
5833,0,0.1875
5834,1,1.25
5835,0,0.1875
5836,0,4.4375
5837,0,4.375
5838,0,4.3125
5839,0,4.4375
5840,0,0.125
5841,1,0.1875
5842,1,1.1875
5843,0,0.25
5844,1,1.25
5845,1,1.1875
5846,1,0.3125
5847,0,0.1875
5848,0,4.375
5849,0,4.25
5850,0,4.3125
5851,0,4.375
5852,0,0.0625
5853,0,0.1875
5854,1,1.3125
5855,1,1.25
5856,0,4.3125
5857,1,1.125
5858,0,4.0625
5859,1,0.375
5860,1,1.25
5861,1,1.25
5862,0,4.3125
5863,1,1.1875
5864,0,4.5
5865,0,4.375
5866,1,1.1875
5867,0,4.5
5868,0,4.5
5869,0,4.0625
5870,1,0.5
5871,0,4.3125
5872,0,4.375
5873,0,0.0625
5874,1,0.25
5875,1,0.1875
5876,0,4.3125
5877,1,1.1875
5878,1,1.3125
5879,0,0.1875
5880,1,1.25
5881,0,0.1875
5882,0,0.1875
5883,1,0.1875
5884,0,0.25
5885,1,1.25
5886,1,1.1875
5887,1,1.3125
5888,0,4.5625
5889,0,4.3125
5890,1,1.25
5891,1,1.1875
5892,1,1.3125
5893,0,4.25
5894,0,4.0625
5895,0,4.375
5896,1,1.25
5897,1,1.1875
5898,0,4.375
5899,0,4.1875
5900,0,0.125
5901,1,1.25
5902,0,4.3125
5903,1,0.125
5904,1,0.1875
5905,0,0.1875
5906,1,1.1875
5907,1,1.3125
5908,0,4.3125
5909,1,1.1875
5910,1,1.1875
5911,0,4.0625
5912,0,4.75
5913,1,1.125
5914,0,4.375
5915,0,0.0625
5916,1,1.25
5917,1,1.3125
5918,0,4.5
5919,0,4.0625
5920,1,1.4375
5921,1,1.25
5922,0,4.375
5923,0,4.25
5924,1,1.1875
5925,1,1.25
5926,0,4.3125
5927,1,1.1875
5928,1,0.1875
5929,1,1.25
5930,1,0.1875
5931,0,4.375
5932,1,1.1875
5933,1,1.25
5934,1,1.25
5935,0,4.4375
5936,1,1.1875
5937,0,4.6875
5938,0,0.125
5939,1,1.1875
5940,0,4.0625
5941,0,4.5
5942,0,0.0625
5943,0,4.0625
5944,0,0.4375
5945,0,0.1875
5946,0,4.375
5947,1,0.125
5948,0,4.25
5949,0,4.0625
5950,1,0.375
5951,0,4.0625
5952,1,0.5
5953,1,0.1875
5954,0,0.1875
5955,0,0.1875
5956,0,4.4375
5957,1,0.0625
5958,0,4.3125
5959,0,4.25
5960,0,0.125
5961,1,2.25
5962,0,0.25
5963,0,4.25
5964,1,1.25
5965,0,0.1875
5966,1,1.1875
5967,1,1.3125
5968,0,4.375
5969,0,0.125
5970,1,1.25
5971,1,1.25
5972,0,4.25
5973,1,0.125
5974,0,4.4375
5975,0,0.125
5976,1,0.1875
5977,1,1.25
5978,0,4.3125
5979,0,0.0625
5980,0,4.0625
5981,0,0.4375
5982,0,4.5
5983,0,0.1875
5984,0,4.4375
5985,0,4.0625
5986,1,0.375
5987,0,4.25
5988,1,0.125
5989,0,4.4375
5990,0,4.25
5991,1,1.125
5992,1,1.3125
5993,0,4.25
5994,0,0.125
5995,0,4.0625
5996,1,1.6875
5997,0,4.5625
5998,1,0.125
5999,0,4.375
