Trial,Accuracy,RT
0,0,5.6875
1,0,5.0
2,0,5.375
3,1,0.25
4,0,5.75
5,0,5.9375
6,0,5.625
7,0,5.5
8,0,0.125
9,0,5.0
10,1,0.0625
11,0,5.4375
12,0,5.5
13,0,5.5
14,0,5.4375
15,1,0.125
16,0,5.8125
17,1,0.125
18,0,0.25
19,0,5.75
20,0,5.0
21,0,5.3125
22,0,5.6875
23,0,5.375
24,0,0.125
25,0,0.25
26,0,5.9375
27,0,5.0
28,0,4.9375
29,0,5.0
30,0,5.875
31,1,0.125
32,1,0.1875
33,1,1.25
34,0,5.5625
35,1,0.125
36,1,0.1875
37,0,5.75
38,1,0.125
39,0,5.0
40,1,1.1875
41,1,0.1875
42,1,0.1875
43,0,5.625
44,0,0.125
45,0,5.875
46,0,5.375
47,1,4.4375
48,1,0.1875
49,0,5.0625
50,0,0.0625
51,0,5.0625
52,0,5.5
53,0,0.125
54,0,0.1875
55,1,0.1875
56,1,0.1875
57,0,0.1875
58,1,0.1875
59,0,0.25
60,0,5.375
61,1,1.1875
62,0,5.9375
63,1,0.0625
64,0,0.25
65,0,4.9375
66,0,0.125
67,0,5.8125
68,0,5.4375
69,0,0.125
70,0,5.0
71,1,0.0625
72,0,5.4375
73,0,0.0625
74,0,0.1875
75,0,5.0
76,0,5.6875
77,0,5.0
78,0,0.125
79,0,5.375
80,0,0.125
81,0,5.4375
82,0,5.0
83,0,5.3125
84,0,5.5625
85,1,0.0625
86,0,0.25
87,0,5.0625
88,0,5.25
89,0,5.5
90,0,0.125
91,0,5.0
92,0,0.125
93,0,5.0
94,0,6.0
95,0,0.1875
96,0,0.3125
97,0,5.375
98,0,0.125
99,1,0.1875
100,1,0.25
101,1,0.1875
102,1,1.25
103,0,0.1875
104,1,0.1875
105,0,5.6875
106,0,5.625
107,1,0.125
108,0,5.375
109,1,1.1875
110,1,0.25
111,0,0.1875
112,0,5.5625
113,1,0.125
114,0,5.75
115,0,5.875
116,1,0.125
117,1,0.1875
118,0,0.1875
119,0,0.1875
120,0,5.4375
121,0,5.5
122,0,0.125
123,0,5.0
124,0,5.3125
125,0,5.0
126,1,0.125
127,0,5.4375
128,0,5.3125
129,1,1.3125
130,1,0.1875
131,1,1.5
132,1,0.1875
133,0,5.0625
134,1,1.25
135,0,0.1875
136,0,0.1875
137,0,0.1875
138,1,1.25
139,1,1.375
140,0,5.5625
141,0,5.125
142,0,5.875
143,0,0.125
144,0,0.1875
145,0,5.375
146,0,5.0
147,1,0.125
148,0,5.375
149,0,5.0
150,0,5.5
151,0,0.0625
152,1,0.25
153,0,5.0
154,0,4.9375
155,0,5.3125
156,1,0.125
157,0,5.0
158,1,0.125
159,1,1.1875
160,1,0.25
161,1,0.1875
162,1,0.25
163,1,0.1875
164,1,0.1875
165,0,0.1875
166,1,1.25
167,1,0.1875
168,0,0.1875
169,0,5.5
170,0,5.25
171,0,5.3125
172,0,5.6875
173,0,5.3125
174,0,5.625
175,0,5.5625
176,0,0.0625
177,1,0.25
178,0,5.375
179,0,5.125
180,0,5.6875
181,0,5.3125
182,0,0.125
183,0,5.0
184,1,0.125
185,0,5.375
186,1,0.125
187,0,5.375
188,0,5.0
189,1,1.125
190,0,5.0625
191,1,1.1875
192,0,5.4375
193,0,5.25
194,0,0.125
195,0,5.5
196,0,5.375
197,1,0.125
198,0,5.0
199,1,0.125
200,1,0.1875
201,0,5.0
202,1,1.25
203,0,5.0
204,0,0.125
205,0,0.1875
206,0,0.1875
207,0,0.1875
208,0,0.1875
209,1,0.1875
210,1,0.1875
211,0,5.9375
212,1,0.125
213,1,0.1875
214,0,5.0
215,0,0.125
216,0,5.125
217,0,5.375
218,1,0.125
219,0,0.1875
220,0,5.4375
221,0,0.0625
222,0,0.25
223,0,5.4375
224,0,0.125
225,0,5.0
226,0,5.3125
227,0,0.125
228,1,0.1875
229,0,0.1875
230,0,0.1875
231,0,0.1875
232,0,0.1875
233,0,5.625
234,0,5.5625
235,0,5.75
236,0,5.5
237,0,5.3125
238,0,5.5
239,0,5.625
240,0,0.125
241,1,1.25
242,1,0.1875
243,1,1.375
244,0,5.5625
245,1,1.3125
246,1,1.25
247,0,5.5625
248,0,0.125
249,1,0.1875
250,0,0.1875
251,1,1.375
252,1,0.1875
253,0,0.1875
254,0,5.5
255,0,5.625
256,1,0.125
257,1,0.1875
258,0,5.375
259,0,0.125
260,1,0.1875
261,0,5.6875
262,0,5.4375
263,0,5.625
264,0,5.4375
265,0,0.125
266,0,5.0
267,0,0.125
268,1,0.1875
269,0,0.1875
270,1,0.1875
271,0,0.1875
272,0,5.0
273,0,5.6875
274,1,0.125
275,1,0.1875
276,0,5.0
277,0,5.375
278,0,5.5
279,0,0.125
280,0,5.0
281,0,0.125
282,1,0.1875
283,0,0.1875
284,0,5.4375
285,0,5.625
286,0,5.0
287,1,0.125
288,0,5.375
289,0,5.75
290,0,5.5
291,0,0.0625
292,0,0.3125
293,1,0.1875
294,0,5.4375
295,0,0.0625
296,1,0.25
297,0,5.375
298,1,0.125
299,1,0.1875
300,0,0.1875
301,0,5.0
302,0,0.125
303,0,5.375
304,1,0.0625
305,1,0.25
306,0,5.375
307,0,5.4375
308,0,0.125
309,1,0.1875
310,0,5.0
311,0,0.125
312,1,0.1875
313,0,5.375
314,0,0.125
315,1,4.625
316,0,0.1875
317,0,5.625
318,0,0.125
319,0,5.4375
320,0,5.3125
321,0,5.6875
322,0,5.5625
323,0,5.0625
324,1,0.125
325,0,4.9375
326,1,0.125
327,0,5.4375
328,0,5.0
329,1,0.125
330,0,5.5
331,0,5.0
332,0,5.0
333,1,0.125
334,1,0.1875
335,0,5.0
336,0,5.375
337,0,5.0
338,1,0.125
339,1,0.1875
340,0,5.0
341,1,0.125
342,1,0.1875
343,0,0.1875
344,0,0.1875
345,1,1.5
346,0,5.0625
347,0,1.125
348,1,1.3125
349,1,1.25
350,1,1.3125
351,1,0.25
352,1,0.1875
353,0,5.4375
354,0,5.5
355,0,0.0625
356,1,1.3125
357,0,0.1875
358,1,0.1875
359,0,0.25
360,0,5.5625
361,0,5.0625
362,0,1.125
363,0,5.5625
364,0,0.125
365,0,5.0625
366,0,1.125
367,0,0.25
368,0,5.5625
369,0,5.375
370,0,0.125
371,1,1.25
372,1,0.1875
373,0,0.1875
374,0,5.6875
375,1,0.125
376,1,1.3125
377,0,0.1875
378,1,0.1875
379,1,1.3125
380,1,0.1875
381,1,0.1875
382,1,0.1875
383,0,0.1875
384,0,0.1875
385,0,0.1875
386,1,1.25
387,1,0.25
388,1,0.1875
389,0,0.1875
390,0,5.375
391,1,1.1875
392,0,5.5625
393,0,5.375
394,1,0.125
395,1,1.3125
396,0,0.1875
397,0,0.1875
398,1,0.1875
399,1,1.3125
400,1,0.1875
401,0,5.5
402,1,1.125
403,0,5.8125
404,0,5.25
405,1,0.125
406,1,0.1875
407,0,5.5625
408,0,5.5625
409,1,0.125
410,0,5.5625
411,0,0.125
412,0,5.6875
413,1,0.125
414,1,3.5625
415,1,0.1875
416,0,5.75
417,0,0.125
418,1,0.25
419,1,0.1875
420,0,5.5625
421,1,0.125
422,1,0.1875
423,0,5.75
424,0,5.375
425,1,0.125
426,1,1.5
427,0,5.3125
428,0,0.125
429,0,0.1875
430,0,5.5625
431,0,5.625
432,0,5.0
433,0,0.125
434,0,5.8125
435,0,0.125
436,1,1.25
437,0,0.1875
438,0,5.4375
439,0,5.4375
440,1,0.125
441,0,5.75
442,0,5.0
443,0,0.0625
444,0,0.25
445,0,0.1875
446,0,0.1875
447,1,0.1875
448,0,0.1875
449,0,0.1875
450,1,0.1875
451,1,0.1875
452,1,2.5
453,0,5.4375
454,0,0.0625
455,0,5.4375
456,0,5.0625
457,0,5.3125
458,1,0.125
459,0,5.0
460,1,0.125
461,0,0.1875
462,1,0.1875
463,1,2.375
464,1,2.4375
465,0,0.1875
466,1,1.375
467,0,0.1875
468,1,0.1875
469,0,5.75
470,0,0.125
471,0,0.1875
472,1,0.1875
473,0,0.1875
474,1,0.1875
475,1,0.25
476,1,4.75
477,0,0.1875
478,1,0.1875
479,1,0.25
480,0,6.0625
481,0,5.5
482,0,5.375
483,0,0.0625
484,0,5.0
485,1,0.125
486,1,2.4375
487,1,0.1875
488,1,0.1875
489,0,0.1875
490,0,0.1875
491,0,5.625
492,0,5.4375
493,1,0.125
494,0,5.375
495,0,5.4375
496,0,5.375
497,0,5.375
498,0,5.5
499,1,0.0625
500,0,5.4375
501,0,5.3125
502,0,5.6875
503,1,0.0625
504,0,0.25
505,1,0.1875
506,0,0.1875
507,0,0.1875
508,0,0.1875
509,0,5.5
510,0,0.125
511,0,5.0
512,1,0.0625
513,1,0.1875
514,1,1.375
515,1,1.25
516,0,0.1875
517,0,0.1875
518,1,0.1875
519,0,0.25
520,0,0.1875
521,1,0.1875
522,1,1.3125
523,1,1.25
524,1,1.375
525,1,1.25
526,1,1.3125
527,0,5.4375
528,1,0.0625
529,0,5.4375
530,1,1.1875
531,0,5.6875
532,1,0.0625
533,0,0.1875
534,1,1.3125
535,1,1.3125
536,0,0.1875
537,1,0.1875
538,1,1.3125
539,1,0.1875
540,0,5.5625
541,1,1.3125
542,0,0.1875
543,0,5.5625
544,0,0.125
545,1,0.1875
546,0,0.1875
547,1,1.375
548,0,5.5625
549,1,1.25
550,1,1.3125
551,0,5.5625
552,1,0.125
553,0,5.5625
554,0,0.125
555,0,0.1875
556,1,0.1875
557,0,5.625
558,0,0.0625
559,0,5.6875
560,1,0.0625
561,1,0.25
562,1,0.1875
563,1,2.375
564,1,0.1875
565,0,5.5
566,1,0.125
567,0,5.5
568,0,0.125
569,1,0.1875
570,0,0.1875
571,0,0.1875
572,0,0.25
573,0,5.5625
574,0,5.0
575,0,5.5625
576,0,5.5625
577,1,0.125
578,1,0.1875
579,0,0.25
580,0,5.0625
581,1,1.1875
582,0,0.25
583,1,0.1875
584,0,5.5625
585,0,0.125
586,0,5.0
587,0,5.0
588,0,5.0
589,0,0.125
590,0,5.375
591,0,5.5
592,1,0.125
593,0,0.1875
594,1,0.1875
595,1,1.375
596,1,1.25
597,0,0.1875
598,0,0.1875
599,1,1.375
600,0,5.5625
601,0,0.125
602,1,1.25
603,1,0.1875
604,0,5.625
605,1,1.25
606,1,1.3125
607,1,1.3125
608,0,5.5
609,0,0.125
610,0,5.5625
611,0,0.125
612,1,1.3125
613,0,5.625
614,1,0.0625
615,1,0.25
616,0,5.5625
617,0,5.5625
618,0,5.3125
619,0,0.125
620,0,5.5
621,0,5.0
622,1,1.25
623,1,0.1875
624,0,5.4375
625,0,5.4375
626,0,5.4375
627,1,0.125
628,0,5.5625
629,0,5.0
630,0,0.125
631,0,0.1875
632,0,5.375
633,0,5.375
634,1,0.125
635,0,4.9375
636,0,5.3125
637,0,5.4375
638,0,0.0625
639,0,5.4375
640,1,0.0625
641,0,5.625
642,1,0.0625
643,0,0.25
644,1,0.1875
645,0,5.4375
646,1,0.0625
647,0,5.0
648,0,5.6875
649,0,5.5
650,1,0.125
651,1,0.25
652,0,5.6875
653,0,5.625
654,1,0.0625
655,0,5.5625
656,1,1.125
657,1,0.1875
658,1,1.3125
659,1,1.1875
660,1,0.1875
661,0,0.25
662,1,0.25
663,0,5.5625
664,1,0.125
665,1,0.1875
666,1,0.1875
667,0,5.6875
668,1,1.125
669,0,0.1875
670,0,5.6875
671,1,1.125
672,1,0.25
673,1,0.1875
674,1,0.1875
675,1,1.25
676,1,0.1875
677,1,0.25
678,1,1.1875
679,1,0.1875
680,1,0.1875
681,0,0.25
682,1,0.25
683,1,0.1875
684,0,0.1875
685,1,0.1875
686,1,1.25
687,1,0.1875
688,0,5.4375
689,0,0.0625
690,0,0.3125
691,1,0.1875
692,0,5.5625
693,0,0.125
694,1,0.1875
695,1,1.1875
696,1,1.3125
697,0,5.6875
698,0,5.6875
699,0,5.375
700,1,1.1875
701,1,1.25
702,1,0.1875
703,1,0.1875
704,1,1.3125
705,1,1.1875
706,0,0.1875
707,0,5.8125
708,1,1.25
709,1,0.1875
710,0,0.1875
711,1,0.1875
712,1,0.1875
713,1,1.3125
714,1,1.1875
715,1,1.25
716,1,0.25
717,1,1.1875
718,0,0.25
719,0,5.6875
720,1,0.125
721,1,0.1875
722,0,0.1875
723,0,5.1875
724,1,0.125
725,0,5.5
726,1,1.1875
727,1,0.1875
728,1,0.1875
729,1,0.1875
730,0,0.1875
731,0,5.6875
732,0,0.125
733,0,5.6875
734,0,0.125
735,0,5.5
736,1,1.1875
737,0,5.5
738,0,0.125
739,1,0.1875
740,1,1.3125
741,1,1.1875
742,0,0.1875
743,0,0.1875
744,0,0.1875
745,1,0.3125
746,1,1.1875
747,0,5.5625
748,0,0.125
749,1,1.3125
750,1,1.1875
751,1,0.1875
752,0,5.875
753,0,0.0625
754,0,0.1875
755,0,0.3125
756,0,5.625
757,0,0.0625
758,1,0.25
759,0,0.1875
760,1,0.1875
761,1,1.1875
762,0,0.1875
763,1,0.3125
764,1,1.1875
765,0,5.5625
766,0,5.4375
767,0,5.5
768,0,0.125
769,0,0.1875
770,1,1.3125
771,1,1.1875
772,0,5.5
773,1,1.1875
774,1,1.25
775,1,1.25
776,1,1.25
777,0,5.9375
778,1,1.1875
779,0,5.5
780,0,5.4375
781,0,0.125
782,0,5.5
783,0,5.375
784,0,0.0625
785,0,5.6875
786,0,5.6875
787,1,0.0625
788,0,0.1875
789,0,0.3125
790,0,0.1875
791,1,0.1875
792,1,0.1875
793,0,0.1875
794,0,5.8125
795,0,6.0
796,0,5.0
797,1,3.3125
798,0,5.375
799,0,5.3125
800,1,3.375
801,0,5.375
802,0,5.3125
803,0,5.4375
804,0,5.375
805,0,0.125
806,0,5.4375
807,1,0.125
808,1,1.3125
809,0,5.5625
810,0,0.125
811,0,5.0
812,0,5.5
813,1,0.125
814,0,5.4375
815,0,0.1875
816,0,0.1875
817,0,4.9375
818,0,5.625
819,0,5.6875
820,0,5.5
821,0,5.0
822,0,5.5
823,0,0.0625
824,0,5.5
825,0,5.3125
826,0,0.125
827,0,5.875
828,0,5.5
829,0,0.0625
830,0,5.875
831,0,5.0
832,0,5.375
833,0,6.0
834,0,5.0
835,0,5.3125
836,0,5.0
837,0,0.125
838,0,5.625
839,1,0.125
840,1,0.1875
841,0,5.75
842,0,0.125
843,0,0.1875
844,0,5.6875
845,1,0.125
846,0,5.0
847,0,5.0
848,0,5.625
849,1,0.0625
850,0,5.875
851,0,5.375
852,0,5.0
853,0,5.4375
854,0,5.3125
855,0,5.5625
856,0,5.5
857,1,0.125
858,0,0.1875
859,1,0.1875
860,0,5.0
861,0,0.125
862,0,5.75
863,0,5.375
864,1,0.125
865,1,0.1875
866,0,0.25
867,0,4.9375
868,0,0.125
869,1,0.25
870,0,5.375
871,1,1.125
872,1,0.25
873,0,0.1875
874,0,0.1875
875,1,1.25
876,0,0.1875
877,0,5.625
878,0,0.125
879,0,5.5625
880,0,5.375
881,0,5.5625
882,1,1.1875
883,0,5.6875
884,0,5.6875
885,1,1.125
886,0,5.4375
887,1,0.125
888,0,0.1875
889,1,0.1875
890,0,0.25
891,1,0.1875
892,0,5.0
893,1,1.1875
894,1,0.1875
895,0,0.1875
896,0,5.4375
897,1,1.1875
898,0,5.6875
899,0,0.125
900,0,5.375
901,1,0.125
902,0,5.5
903,1,0.125
904,1,0.1875
905,0,5.6875
906,1,0.125
907,0,5.8125
908,0,5.5
909,0,5.0
910,0,0.0625
911,0,5.75
912,0,5.4375
913,1,0.0625
914,1,1.25
915,0,5.625
916,1,0.125
917,0,5.4375
918,0,5.5625
919,1,0.125
920,0,0.1875
921,1,0.1875
922,0,0.25
923,0,5.625
924,1,0.125
925,0,5.0
926,0,4.9375
927,0,5.625
928,0,0.125
929,1,0.1875
930,0,0.1875
931,1,0.1875
932,0,0.1875
933,0,0.1875
934,0,0.1875
935,1,0.25
936,0,0.1875
937,1,0.1875
938,1,1.4375
939,0,5.0625
940,1,0.125
941,1,0.1875
942,0,5.6875
943,0,0.125
944,0,0.1875
945,1,1.5
946,1,0.1875
947,0,5.0625
948,0,0.125
949,1,1.375
950,0,0.1875
951,0,0.1875
952,0,0.1875
953,1,1.5
954,0,0.1875
955,0,0.1875
956,1,0.1875
957,1,0.1875
958,1,0.1875
959,0,5.0625
960,1,0.125
961,1,0.1875
962,0,5.0625
963,0,0.0625
964,1,1.4375
965,0,0.1875
966,1,0.25
967,1,1.3125
968,0,5.875
969,0,0.125
970,0,5.4375
971,0,5.5625
972,0,0.125
973,0,0.1875
974,0,0.1875
975,0,0.1875
976,1,0.1875
977,1,0.1875
978,0,0.25
979,0,5.0625
980,0,5.4375
981,0,5.375
982,0,5.625
983,0,5.0
984,0,5.4375
985,0,5.0625
986,0,5.3125
987,1,0.125
988,0,5.0
989,1,0.125
990,0,4.9375
991,1,0.125
992,0,5.5
993,0,0.125
994,1,1.3125
995,1,0.1875
996,1,1.3125
997,0,0.1875
998,1,0.1875
999,1,0.1875
1000,1,0.1875
1001,0,5.625
1002,0,5.5625
1003,1,0.125
1004,0,0.1875
1005,1,0.1875
1006,0,5.4375
1007,1,0.125
1008,0,5.5625
1009,0,0.125
1010,1,0.1875
1011,0,5.4375
1012,0,0.125
1013,0,5.4375
1014,0,5.3125
1015,0,5.625
1016,0,0.0625
1017,0,5.5
1018,0,5.5625
1019,0,4.9375
1020,0,0.125
1021,0,0.25
1022,1,0.1875
1023,1,0.1875
1024,0,5.0
1025,0,5.4375
1026,1,0.0625
1027,0,5.625
1028,1,0.0625
1029,0,5.4375
1030,0,5.4375
1031,0,5.75
1032,1,0.0625
1033,0,5.625
1034,1,0.0625
1035,0,5.6875
1036,1,0.0625
1037,0,5.8125
1038,0,0.1875
1039,0,0.1875
1040,0,0.1875
1041,0,5.6875
1042,1,0.125
1043,0,0.1875
1044,1,0.1875
1045,1,0.25
1046,0,0.1875
1047,0,0.1875
1048,0,5.5
1049,0,5.0
1050,1,0.125
1051,0,0.1875
1052,1,0.1875
1053,1,0.1875
1054,1,1.375
1055,1,0.1875
1056,0,0.1875
1057,1,0.1875
1058,1,0.1875
1059,1,1.375
1060,0,0.1875
1061,0,5.5625
1062,1,1.25
1063,0,5.5625
1064,0,0.1875
1065,1,1.25
1066,0,5.5
1067,0,5.5
1068,1,0.125
1069,1,1.3125
1070,0,5.5625
1071,0,5.375
1072,1,0.125
1073,0,0.1875
1074,1,0.25
1075,1,0.1875
1076,1,1.3125
1077,1,1.25
1078,0,5.375
1079,1,0.125
1080,1,1.375
1081,0,5.375
1082,1,1.1875
1083,1,1.375
1084,0,5.375
1085,0,0.125
1086,0,5.5625
1087,1,1.25
1088,1,1.3125
1089,1,0.1875
1090,0,0.1875
1091,0,5.375
1092,0,0.125
1093,1,0.1875
1094,0,5.625
1095,0,5.5
1096,0,0.125
1097,0,0.1875
1098,0,5.5625
1099,0,5.5625
1100,1,0.125
1101,1,0.25
1102,0,0.1875
1103,1,0.1875
1104,1,1.3125
1105,1,1.3125
1106,1,0.1875
1107,0,0.1875
1108,0,5.4375
1109,0,5.5
1110,1,0.125
1111,0,0.1875
1112,0,0.1875
1113,1,1.3125
1114,0,5.625
1115,0,5.3125
1116,0,5.4375
1117,1,0.125
1118,1,0.1875
1119,0,0.25
1120,0,0.1875
1121,1,1.25
1122,1,0.25
1123,1,0.1875
1124,0,0.1875
1125,0,5.4375
1126,1,1.1875
1127,0,0.1875
1128,0,0.25
1129,0,0.1875
1130,0,0.25
1131,1,1.25
1132,0,0.1875
1133,1,0.1875
1134,1,0.1875
1135,0,0.25
1136,1,0.1875
1137,0,5.375
1138,0,0.125
1139,0,5.625
1140,0,0.125
1141,0,0.1875
1142,1,1.25
1143,0,5.4375
1144,1,1.3125
1145,0,5.5625
1146,1,1.25
1147,1,1.3125
1148,0,5.4375
1149,1,1.25
1150,1,0.1875
1151,1,1.3125
1152,0,0.1875
1153,0,0.25
1154,1,1.25
1155,1,1.3125
1156,0,5.375
1157,0,5.3125
1158,1,1.25
1159,1,0.1875
1160,0,0.25
1161,0,0.1875
1162,0,0.1875
1163,0,5.625
1164,1,1.1875
1165,1,0.25
1166,0,5.5625
1167,0,5.625
1168,0,0.0625
1169,1,1.3125
1170,0,5.375
1171,1,1.3125
1172,1,0.1875
1173,0,0.1875
1174,1,1.25
1175,0,5.375
1176,1,1.3125
1177,1,1.25
1178,1,1.375
1179,1,1.25
1180,1,1.3125
1181,1,1.3125
1182,1,1.3125
1183,0,5.375
1184,0,5.3125
1185,1,1.1875
1186,1,1.3125
1187,1,1.25
1188,1,1.375
1189,1,1.25
1190,0,5.375
1191,0,5.3125
1192,1,1.25
1193,0,5.5
1194,1,1.25
1195,1,1.25
1196,0,5.5625
1197,1,1.1875
1198,1,1.375
1199,0,5.5625
1200,0,5.5625
1201,0,5.5
1202,1,1.25
1203,1,1.3125
1204,1,1.3125
1205,1,1.3125
1206,0,5.375
1207,1,1.1875
1208,1,1.3125
1209,1,1.3125
1210,0,5.375
1211,1,1.25
1212,0,5.375
1213,0,5.3125
1214,0,5.5625
1215,1,1.1875
1216,0,5.625
1217,0,5.5
1218,0,5.5625
1219,1,1.3125
1220,0,0.1875
1221,1,1.25
1222,1,1.375
1223,1,1.25
1224,1,1.3125
1225,1,1.25
1226,0,5.4375
1227,1,1.25
1228,0,5.375
1229,0,5.3125
1230,1,1.1875
1231,1,1.375
1232,1,1.25
1233,1,1.3125
1234,1,1.3125
1235,1,1.3125
1236,1,1.25
1237,0,5.375
1238,1,1.25
1239,1,1.3125
1240,0,5.375
1241,1,1.25
1242,1,1.25
1243,1,1.3125
1244,0,5.4375
1245,0,5.25
1246,0,5.3125
1247,0,5.5625
1248,1,1.25
1249,1,1.3125
1250,0,5.375
1251,0,5.5625
1252,0,5.5625
1253,0,5.5
1254,0,5.5625
1255,1,1.3125
1256,0,0.1875
1257,1,1.25
1258,1,1.3125
1259,0,5.4375
1260,1,1.1875
1261,0,5.625
1262,1,1.25
1263,1,1.3125
1264,0,5.375
1265,0,5.5625
1266,1,0.0625
1267,1,1.375
1268,1,1.25
1269,0,5.375
1270,0,0.125
1271,1,1.3125
1272,0,5.375
1273,0,5.5
1274,1,1.1875
1275,0,5.375
1276,1,0.125
1277,1,0.25
1278,1,1.3125
1279,0,0.1875
1280,1,0.1875
1281,1,0.1875
1282,1,1.3125
1283,1,1.3125
1284,1,0.1875
1285,1,1.3125
1286,0,5.375
1287,0,5.3125
1288,1,1.1875
1289,1,1.3125
1290,0,5.4375
1291,1,1.125
1292,1,0.25
1293,1,0.1875
1294,1,1.3125
1295,0,0.1875
1296,1,0.1875
1297,1,1.3125
1298,1,0.25
1299,1,0.1875
1300,0,5.375
1301,1,0.125
1302,1,1.25
1303,0,0.1875
1304,1,0.1875
1305,1,1.375
1306,0,5.375
1307,0,0.125
1308,1,0.1875
1309,1,0.1875
1310,0,0.1875
1311,1,0.1875
1312,1,0.1875
1313,1,1.375
1314,0,5.375
1315,1,1.1875
1316,0,5.375
1317,0,5.3125
1318,0,0.0625
1319,0,5.4375
1320,1,0.125
1321,0,0.1875
1322,0,0.1875
1323,0,0.3125
1324,0,5.4375
1325,1,0.125
1326,0,5.5625
1327,0,5.5625
1328,0,5.5625
1329,1,0.125
1330,1,2.3125
1331,0,0.1875
1332,0,0.25
1333,0,5.5
1334,0,5.4375
1335,1,0.125
1336,1,0.1875
1337,1,1.3125
1338,1,0.25
1339,1,0.1875
1340,1,0.1875
1341,0,5.5
1342,0,5.5
1343,0,5.5
1344,0,0.125
1345,0,5.375
1346,0,0.125
1347,0,5.5625
1348,1,0.125
1349,1,0.1875
1350,1,0.25
1351,0,5.5625
1352,0,4.9375
1353,1,0.125
1354,0,0.25
1355,1,1.1875
1356,0,0.1875
1357,0,5.625
1358,0,5.5
1359,1,0.125
1360,0,5.8125
1361,1,1.1875
1362,1,1.25
1363,1,1.3125
1364,0,5.375
1365,0,0.125
1366,0,5.375
1367,0,0.125
1368,1,1.3125
1369,1,0.25
1370,1,1.25
1371,0,5.375
1372,0,0.125
1373,1,1.3125
1374,1,0.1875
1375,1,1.3125
1376,1,1.3125
1377,1,1.25
1378,1,1.3125
1379,0,0.25
1380,0,0.1875
1381,0,0.1875
1382,1,0.1875
1383,1,0.1875
1384,0,5.375
1385,0,0.125
1386,1,1.3125
1387,1,0.1875
1388,1,1.3125
1389,0,0.1875
1390,1,0.1875
1391,0,0.1875
1392,1,1.3125
1393,1,1.3125
1394,1,1.3125
1395,1,1.25
1396,0,5.375
1397,1,1.3125
1398,1,1.25
1399,1,1.3125
1400,0,5.375
1401,1,1.1875
1402,0,5.375
1403,1,1.25
1404,1,1.3125
1405,1,1.3125
1406,1,1.25
1407,0,5.375
1408,1,1.25
1409,1,1.3125
1410,0,5.375
1411,0,5.3125
1412,1,1.25
1413,1,1.25
1414,0,5.375
1415,0,5.3125
1416,1,1.25
1417,0,5.375
1418,0,5.3125
1419,1,0.125
1420,1,0.1875
1421,1,0.1875
1422,1,0.1875
1423,0,5.375
1424,1,1.25
1425,0,5.5
1426,1,0.0625
1427,1,0.3125
1428,0,5.5625
1429,1,1.25
1430,1,0.1875
1431,0,5.5625
1432,0,0.125
1433,1,1.3125
1434,1,1.25
1435,0,0.25
1436,1,1.3125
1437,0,0.1875
1438,1,1.25
1439,0,5.375
1440,0,0.125
1441,1,1.375
1442,1,1.25
1443,1,1.3125
1444,0,5.375
1445,0,0.125
1446,1,0.1875
1447,0,5.375
1448,0,0.125
1449,1,1.3125
1450,0,0.25
1451,1,1.25
1452,0,5.375
1453,1,1.25
1454,1,1.25
1455,0,5.4375
1456,1,1.1875
1457,0,0.25
1458,1,1.25
1459,0,5.375
1460,1,1.25
1461,1,1.25
1462,1,1.375
1463,1,1.25
1464,0,5.375
1465,0,5.3125
1466,0,5.3125
1467,0,0.125
1468,1,1.3125
1469,0,5.375
1470,1,1.1875
1471,1,1.3125
1472,0,5.375
1473,1,1.1875
1474,0,5.4375
1475,0,5.25
1476,0,5.375
1477,1,0.125
1478,1,0.1875
1479,0,5.5625
1480,1,0.125
1481,1,0.1875
1482,1,0.25
1483,0,0.1875
1484,0,5.625
1485,0,5.5
1486,0,5.4375
1487,0,5.5
1488,0,5.5
1489,1,2.3125
1490,0,5.375
1491,1,1.1875
1492,1,0.1875
1493,1,0.1875
1494,1,0.1875
1495,0,5.625
1496,1,0.125
1497,0,5.375
1498,0,5.5
1499,1,0.125
1500,0,0.1875
1501,0,5.5625
1502,1,0.125
1503,0,0.1875
1504,1,0.1875
1505,0,5.0
1506,0,5.9375
1507,0,0.125
1508,1,1.3125
1509,0,5.5625
1510,0,0.125
1511,1,0.1875
1512,0,5.0
1513,0,0.125
1514,1,0.1875
1515,0,5.5
1516,0,0.125
1517,1,0.1875
1518,0,5.0
1519,1,0.125
1520,0,5.5625
1521,0,5.0
1522,0,5.375
1523,1,0.125
1524,0,5.5
1525,1,0.0625
1526,1,3.375
1527,0,5.0
1528,0,5.3125
1529,0,0.125
1530,0,0.1875
1531,0,0.1875
1532,0,0.25
1533,0,5.5
1534,0,5.625
1535,0,5.5
1536,0,0.0625
1537,1,0.1875
1538,0,5.5
1539,0,5.3125
1540,1,1.1875
1541,1,0.1875
1542,1,1.3125
1543,0,0.25
1544,1,1.3125
1545,1,0.1875
1546,1,0.1875
1547,0,0.1875
1548,0,0.1875
1549,1,1.3125
1550,0,0.1875
1551,0,5.375
1552,0,5.3125
1553,1,0.125
1554,1,0.25
1555,0,0.1875
1556,0,5.4375
1557,1,0.125
1558,1,1.3125
1559,1,0.1875
1560,1,0.1875
1561,0,5.375
1562,1,0.125
1563,0,5.5
1564,1,1.25
1565,1,0.1875
1566,1,0.25
1567,1,0.1875
1568,0,5.375
1569,0,5.5
1570,1,1.25
1571,0,0.25
1572,0,0.1875
1573,1,0.1875
1574,0,0.1875
1575,1,0.1875
1576,0,0.1875
1577,1,1.375
1578,0,5.375
1579,0,5.5
1580,1,0.0625
1581,0,0.25
1582,0,5.5
1583,1,0.125
1584,0,0.1875
1585,1,1.3125
1586,0,0.1875
1587,0,0.1875
1588,0,0.25
1589,1,0.1875
1590,0,0.1875
1591,0,0.1875
1592,1,1.25
1593,0,0.25
1594,1,0.25
1595,0,5.375
1596,1,0.125
1597,1,0.1875
1598,1,0.1875
1599,1,0.1875
1600,0,0.1875
1601,1,0.1875
1602,0,5.375
1603,0,0.125
1604,0,0.1875
1605,1,0.1875
1606,0,5.625
1607,0,0.0625
1608,1,1.375
1609,0,0.1875
1610,1,0.1875
1611,1,1.3125
1612,0,0.1875
1613,1,0.25
1614,1,0.1875
1615,0,5.375
1616,0,0.125
1617,0,0.1875
1618,0,5.375
1619,1,1.25
1620,1,0.1875
1621,1,1.3125
1622,1,0.1875
1623,0,0.1875
1624,0,0.1875
1625,0,0.25
1626,1,1.3125
1627,1,1.25
1628,0,5.375
1629,1,1.25
1630,1,1.3125
1631,1,0.1875
1632,1,0.1875
1633,1,1.3125
1634,1,1.25
1635,0,0.25
1636,1,1.3125
1637,0,5.375
1638,1,0.125
1639,0,5.375
1640,1,0.125
1641,0,5.375
1642,0,5.3125
1643,0,5.5
1644,0,5.5
1645,0,5.5625
1646,1,0.125
1647,0,5.5625
1648,0,5.4375
1649,1,0.125
1650,1,1.3125
1651,1,0.25
1652,0,0.1875
1653,0,0.1875
1654,0,0.1875
1655,0,5.5
1656,1,1.3125
1657,1,1.3125
1658,1,1.3125
1659,1,0.1875
1660,1,1.25
1661,0,5.375
1662,0,0.125
1663,0,0.1875
1664,0,0.25
1665,1,1.3125
1666,0,5.375
1667,0,5.3125
1668,0,0.0625
1669,0,0.25
1670,0,0.1875
1671,1,0.1875
1672,0,0.1875
1673,0,0.1875
1674,1,0.25
1675,1,0.1875
1676,0,0.25
1677,0,0.1875
1678,1,0.1875
1679,1,0.1875
1680,0,5.5
1681,1,0.0625
1682,0,5.5625
1683,1,1.3125
1684,0,0.1875
1685,0,5.5625
1686,1,1.25
1687,1,0.1875
1688,0,5.4375
1689,1,0.125
1690,0,0.1875
1691,1,0.1875
1692,1,1.3125
1693,0,5.375
1694,1,1.25
1695,0,5.625
1696,1,1.25
1697,0,5.5625
1698,1,0.125
1699,1,0.1875
1700,0,0.1875
1701,1,1.375
1702,1,1.25
1703,0,0.1875
1704,1,1.375
1705,1,1.25
1706,0,0.1875
1707,1,0.1875
1708,1,1.3125
1709,1,1.3125
1710,1,1.3125
1711,0,5.375
1712,1,1.1875
1713,1,1.3125
1714,1,0.25
1715,0,0.1875
1716,0,5.375
1717,1,0.125
1718,1,1.3125
1719,1,0.1875
1720,1,1.25
1721,1,0.25
1722,0,5.375
1723,0,0.0625
1724,1,1.375
1725,0,5.375
1726,1,1.1875
1727,0,0.1875
1728,1,1.3125
1729,0,0.1875
1730,1,1.3125
1731,0,5.375
1732,1,1.25
1733,1,1.25
1734,1,1.375
1735,0,5.375
1736,0,5.25
1737,0,5.3125
1738,0,0.125
1739,0,0.1875
1740,0,5.5
1741,0,5.5625
1742,1,2.3125
1743,1,1.25
1744,0,5.375
1745,1,0.1875
1746,0,5.5625
1747,1,3.375
1748,0,5.4375
1749,0,5.3125
1750,0,5.4375
1751,0,0.125
1752,0,5.375
1753,0,0.125
1754,0,5.5
1755,0,0.125
1756,0,0.1875
1757,0,5.4375
1758,1,0.125
1759,1,0.1875
1760,1,1.3125
1761,1,0.1875
1762,1,0.1875
1763,1,1.375
1764,0,0.1875
1765,0,5.375
1766,1,1.1875
1767,0,5.375
1768,1,0.125
1769,1,1.3125
1770,1,0.1875
1771,1,1.3125
1772,1,0.1875
1773,1,1.3125
1774,1,0.1875
1775,0,5.375
1776,0,5.3125
1777,1,1.1875
1778,0,0.1875
1779,0,5.375
1780,0,5.3125
1781,0,0.125
1782,0,0.1875
1783,1,1.3125
1784,1,1.3125
1785,0,0.25
1786,0,0.1875
1787,0,5.375
1788,1,0.125
1789,1,1.25
1790,1,0.1875
1791,0,0.1875
1792,1,0.25
1793,0,0.1875
1794,1,1.3125
1795,1,0.1875
1796,1,0.1875
1797,1,0.1875
1798,0,0.25
1799,1,1.3125
1800,0,5.375
1801,0,5.3125
1802,0,0.125
1803,1,1.25
1804,1,0.1875
1805,1,1.3125
1806,1,0.1875
1807,1,1.3125
1808,1,0.1875
1809,0,0.25
1810,1,0.1875
1811,0,5.375
1812,1,0.125
1813,1,0.1875
1814,0,5.375
1815,0,0.125
1816,1,0.1875
1817,0,5.375
1818,0,0.125
1819,0,0.1875
1820,0,0.1875
1821,1,1.375
1822,0,0.1875
1823,0,5.375
1824,1,0.125
1825,1,1.25
1826,0,0.1875
1827,0,5.375
1828,0,0.125
1829,0,0.1875
1830,0,5.4375
1831,0,5.625
1832,1,0.125
1833,1,0.1875
1834,1,1.25
1835,0,0.1875
1836,0,0.1875
1837,0,5.4375
1838,0,0.0625
1839,0,5.625
1840,0,5.5625
1841,0,5.4375
1842,0,5.3125
1843,1,0.125
1844,0,5.5625
1845,0,0.125
1846,1,0.1875
1847,0,0.1875
1848,0,0.25
1849,0,5.375
1850,1,0.125
1851,1,1.3125
1852,1,0.1875
1853,0,0.1875
1854,1,0.1875
1855,1,1.25
1856,0,0.1875
1857,0,5.5
1858,1,1.25
1859,1,1.1875
1860,0,5.5625
1861,0,0.0625
1862,1,1.3125
1863,0,5.5
1864,0,0.125
1865,0,5.5
1866,1,1.125
1867,1,0.25
1868,1,0.1875
1869,1,0.1875
1870,1,0.25
1871,0,5.5
1872,1,1.125
1873,0,5.625
1874,0,0.125
1875,0,0.25
1876,1,1.25
1877,0,5.8125
1878,0,5.375
1879,1,0.125
1880,0,5.5625
1881,1,0.0625
1882,1,0.25
1883,1,0.25
1884,0,5.375
1885,0,5.3125
1886,0,5.4375
1887,1,0.125
1888,0,5.375
1889,0,5.625
1890,1,0.125
1891,0,5.0
1892,0,0.125
1893,1,0.1875
1894,0,0.1875
1895,0,5.375
1896,1,0.125
1897,0,0.1875
1898,1,0.1875
1899,1,0.1875
1900,0,5.5625
1901,0,5.0
1902,1,0.125
1903,0,0.1875
1904,0,5.0
1905,0,5.0
1906,0,5.4375
1907,0,5.0
1908,0,0.125
1909,0,0.1875
1910,0,5.4375
1911,1,0.125
1912,1,0.1875
1913,0,0.1875
1914,1,0.1875
1915,0,0.1875
1916,0,0.25
1917,1,0.25
1918,0,4.9375
1919,1,0.125
1920,1,0.25
1921,1,0.1875
1922,0,5.375
1923,0,5.3125
1924,1,0.0625
1925,0,5.0
1926,0,0.125
1927,0,5.625
1928,1,0.0625
1929,1,0.1875
1930,0,0.25
1931,0,5.375
1932,1,1.1875
1933,1,0.1875
1934,0,0.1875
1935,1,0.25
1936,0,0.1875
1937,0,5.4375
1938,0,0.125
1939,1,1.1875
1940,1,1.3125
1941,1,1.25
1942,0,5.375
1943,0,5.4375
1944,0,0.125
1945,0,0.1875
1946,1,0.1875
1947,1,0.1875
1948,1,0.25
1949,0,5.5625
1950,1,0.0625
1951,0,0.25
1952,1,1.1875
1953,0,0.1875
1954,0,5.5
1955,0,0.125
1956,0,0.1875
1957,0,5.75
1958,1,0.125
1959,0,0.1875
1960,0,5.4375
1961,0,5.6875
1962,1,1.1875
1963,1,0.1875
1964,1,0.1875
1965,1,0.25
1966,0,5.5
1967,1,1.1875
1968,0,0.1875
1969,1,1.25
1970,0,5.625
1971,1,1.125
1972,0,5.4375
1973,1,0.125
1974,0,5.375
1975,1,0.125
1976,0,5.5625
1977,0,5.4375
1978,0,0.125
1979,1,1.25
1980,1,0.1875
1981,0,0.1875
1982,0,0.25
1983,1,1.25
1984,1,1.25
1985,1,0.1875
1986,0,5.4375
1987,0,0.125
1988,1,1.3125
1989,1,1.1875
1990,1,0.1875
1991,0,0.1875
1992,1,1.3125
1993,1,0.1875
1994,0,5.375
1995,0,5.4375
1996,0,5.5
1997,0,0.0625
1998,1,1.3125
1999,1,1.1875
2000,1,1.25
2001,1,0.25
2002,0,5.625
2003,1,1.125
2004,0,5.625
2005,0,5.5
2006,1,0.0625
2007,0,0.25
2008,0,0.1875
2009,1,1.25
2010,1,1.25
2011,1,1.25
2012,0,0.1875
2013,1,1.25
2014,1,0.1875
2015,1,0.25
2016,0,5.5
2017,0,5.5625
2018,0,5.625
2019,0,0.125
2020,0,0.1875
2021,0,5.4375
2022,1,1.125
2023,1,1.25
2024,0,5.6875
2025,0,5.625
2026,1,0.125
2027,0,5.375
2028,0,0.125
2029,0,0.1875
2030,0,5.625
2031,0,5.5625
2032,0,5.5625
2033,0,5.375
2034,0,0.0625
2035,1,1.25
2036,0,5.75
2037,0,0.0625
2038,0,0.25
2039,0,0.1875
2040,1,1.25
2041,1,1.25
2042,1,1.25
2043,1,1.25
2044,0,5.6875
2045,0,5.5
2046,1,0.125
2047,0,5.4375
2048,0,5.4375
2049,1,0.0625
2050,0,5.4375
2051,0,0.0625
2052,0,5.4375
2053,0,5.5
2054,0,5.4375
2055,1,1.125
2056,1,0.1875
2057,0,5.5
2058,0,5.25
2059,1,0.125
2060,1,0.1875
2061,1,1.375
2062,0,5.5
2063,0,6.0
2064,1,0.125
2065,1,0.1875
2066,1,1.25
2067,1,1.25
2068,1,0.1875
2069,1,0.25
2070,0,6.0
2071,0,5.0625
2072,0,5.4375
2073,1,0.125
2074,0,5.5625
2075,0,5.3125
2076,0,5.75
2077,1,0.125
2078,0,0.1875
2079,0,5.625
2080,0,0.125
2081,1,0.1875
2082,1,0.1875
2083,0,5.75
2084,1,0.125
2085,0,0.1875
2086,1,1.25
2087,1,0.1875
2088,1,1.375
2089,1,1.25
2090,1,1.3125
2091,0,5.4375
2092,0,5.25
2093,1,1.1875
2094,0,0.1875
2095,0,0.25
2096,0,0.1875
2097,0,0.1875
2098,1,1.3125
2099,0,5.375
2100,0,5.3125
2101,1,0.125
2102,0,0.1875
2103,1,1.3125
2104,0,5.375
2105,1,0.125
2106,0,0.1875
2107,0,0.1875
2108,1,1.3125
2109,0,0.1875
2110,0,5.375
2111,1,1.25
2112,1,1.25
2113,1,1.375
2114,0,5.375
2115,0,0.125
2116,1,0.1875
2117,1,0.1875
2118,0,5.375
2119,0,5.3125
2120,0,0.125
2121,1,1.3125
2122,0,5.375
2123,1,1.1875
2124,0,0.1875
2125,1,0.1875
2126,1,0.1875
2127,1,0.25
2128,0,0.1875
2129,1,0.1875
2130,0,0.25
2131,0,5.375
2132,1,1.1875
2133,1,1.25
2134,0,0.25
2135,0,5.4375
2136,0,0.0625
2137,1,0.25
2138,0,5.375
2139,1,1.1875
2140,0,5.375
2141,1,1.25
2142,1,0.1875
2143,0,5.375
2144,1,0.125
2145,1,0.1875
2146,0,5.375
2147,1,0.125
2148,1,0.1875
2149,0,5.375
2150,0,5.375
2151,1,0.125
2152,0,5.5625
2153,0,5.5
2154,1,0.125
2155,1,1.375
2156,0,5.4375
2157,1,0.125
2158,1,0.1875
2159,0,0.1875
2160,1,1.375
2161,0,0.1875
2162,1,1.25
2163,0,5.375
2164,1,1.25
2165,0,0.1875
2166,1,0.25
2167,0,5.375
2168,0,5.25
2169,1,0.125
2170,1,0.1875
2171,0,5.4375
2172,1,1.1875
2173,1,0.1875
2174,1,1.3125
2175,0,5.375
2176,1,1.1875
2177,0,5.375
2178,0,0.125
2179,0,0.1875
2180,0,0.25
2181,0,0.1875
2182,0,5.4375
2183,1,1.1875
2184,1,0.1875
2185,1,0.1875
2186,0,5.375
2187,0,5.3125
2188,1,0.125
2189,0,0.1875
2190,0,0.1875
2191,0,5.375
2192,1,0.1875
2193,0,0.1875
2194,1,1.4375
2195,0,5.0625
2196,0,0.125
2197,0,0.1875
2198,0,5.4375
2199,0,5.5
2200,0,5.8125
2201,0,5.5625
2202,1,0.125
2203,1,0.1875
2204,1,0.1875
2205,0,0.1875
2206,1,0.1875
2207,1,0.25
2208,0,0.1875
2209,1,0.1875
2210,1,0.1875
2211,0,0.1875
2212,0,0.1875
2213,1,0.1875
2214,0,0.1875
2215,0,5.0
2216,0,5.6875
2217,0,0.0625
2218,0,5.6875
2219,1,0.125
2220,1,0.1875
2221,0,0.25
2222,0,5.5
2223,1,0.125
2224,1,0.1875
2225,1,1.4375
2226,1,1.375
2227,0,5.0625
2228,0,0.125
2229,0,0.1875
2230,1,1.4375
2231,1,0.1875
2232,0,5.5
2233,1,1.25
2234,0,0.1875
2235,0,0.25
2236,1,1.375
2237,1,1.375
2238,0,0.1875
2239,0,5.6875
2240,1,1.6875
2241,0,5.0625
2242,0,5.0625
2243,0,5.3125
2244,0,0.125
2245,1,0.1875
2246,0,5.5625
2247,1,0.125
2248,1,0.1875
2249,0,0.1875
2250,0,0.1875
2251,0,5.5625
2252,0,0.125
2253,0,5.4375
2254,0,5.4375
2255,0,5.375
2256,0,0.125
2257,1,0.1875
2258,0,5.625
2259,0,0.125
2260,0,0.1875
2261,0,0.1875
2262,0,0.1875
2263,0,5.5
2264,0,0.125
2265,0,0.1875
2266,1,1.25
2267,0,0.1875
2268,0,0.25
2269,1,1.1875
2270,0,5.0625
2271,1,1.1875
2272,0,0.1875
2273,1,1.25
2274,0,0.1875
2275,0,5.4375
2276,1,0.1875
2277,0,5.8125
2278,0,5.375
2279,1,1.125
2280,1,0.1875
2281,0,0.1875
2282,0,0.25
2283,0,0.1875
2284,0,5.75
2285,0,0.0625
2286,0,5.625
2287,0,0.0625
2288,1,1.25
2289,0,5.6875
2290,1,1.1875
2291,1,1.1875
2292,0,0.25
2293,0,6.0625
2294,1,1.125
2295,1,0.1875
2296,0,5.0625
2297,0,5.0625
2298,0,0.125
2299,0,5.0625
2300,0,0.125
2301,1,0.1875
2302,0,5.0625
2303,1,1.125
2304,0,5.0625
2305,0,0.0625
2306,0,5.375
2307,0,0.125
2308,1,1.3125
2309,1,0.1875
2310,0,5.375
2311,1,1.125
2312,0,5.0625
2313,0,0.125
2314,0,0.1875
2315,0,0.1875
2316,1,1.3125
2317,0,5.0625
2318,0,5.0625
2319,0,0.125
2320,0,5.0625
2321,1,0.125
2322,0,0.1875
2323,1,1.25
2324,0,5.375
2325,1,1.25
2326,0,5.0625
2327,0,5.0625
2328,0,0.1875
2329,0,0.1875
2330,0,5.125
2331,1,0.125
2332,0,5.0625
2333,0,5.0625
2334,0,0.125
2335,0,5.0
2336,0,5.0625
2337,0,5.0625
2338,0,5.0625
2339,0,5.0625
2340,0,5.0625
2341,0,0.125
2342,0,5.0
2343,1,1.1875
2344,1,0.1875
2345,0,5.4375
2346,1,0.125
2347,1,0.1875
2348,1,0.1875
2349,1,0.25
2350,1,0.1875
2351,1,1.25
2352,0,0.25
2353,1,0.1875
2354,0,5.375
2355,0,0.125
2356,1,0.1875
2357,1,0.1875
2358,1,0.25
2359,0,0.1875
2360,1,1.25
2361,0,5.4375
2362,0,0.0625
2363,1,0.25
2364,0,5.375
2365,1,0.0625
2366,1,1.375
2367,0,0.1875
2368,0,5.375
2369,1,0.125
2370,1,1.25
2371,0,5.375
2372,1,0.125
2373,0,5.375
2374,1,1.25
2375,1,0.1875
2376,1,1.375
2377,1,1.25
2378,1,0.1875
2379,0,0.1875
2380,1,1.375
2381,0,5.375
2382,0,5.25
2383,0,5.3125
2384,1,0.125
2385,1,0.1875
2386,0,5.375
2387,0,0.125
2388,1,1.25
2389,0,5.4375
2390,0,5.25
2391,0,0.125
2392,0,0.1875
2393,0,0.1875
2394,1,1.375
2395,0,0.1875
2396,0,5.375
2397,0,0.125
2398,0,0.1875
2399,0,0.1875
2400,1,0.1875
2401,1,1.375
2402,1,1.25
2403,1,1.3125
2404,1,0.1875
2405,1,1.3125
2406,0,0.1875
2407,1,0.25
2408,1,1.25
2409,1,1.25
2410,1,0.3125
2411,1,0.1875
2412,0,0.1875
2413,0,0.1875
2414,1,1.25
2415,1,1.375
2416,0,0.1875
2417,0,5.375
2418,0,0.125
2419,0,5.375
2420,1,0.125
2421,0,0.1875
2422,0,5.375
2423,0,0.125
2424,0,0.1875
2425,0,0.1875
2426,0,5.375
2427,1,1.25
2428,1,0.1875
2429,0,5.375
2430,1,0.125
2431,0,5.375
2432,1,0.125
2433,1,1.25
2434,0,0.1875
2435,1,1.375
2436,0,5.375
2437,0,5.3125
2438,1,0.125
2439,0,5.375
2440,1,1.25
2441,1,1.25
2442,1,1.25
2443,1,1.375
2444,0,0.1875
2445,0,5.375
2446,0,5.3125
2447,1,0.0625
2448,1,1.375
2449,0,5.375
2450,0,0.125
2451,1,1.25
2452,0,5.375
2453,0,5.3125
2454,0,5.3125
2455,0,0.125
2456,0,0.1875
2457,1,1.3125
2458,1,1.25
2459,0,0.1875
2460,1,0.25
2461,0,0.1875
2462,0,5.375
2463,0,0.1875
2464,1,1.25
2465,1,1.25
2466,1,1.375
2467,1,1.25
2468,0,5.375
2469,1,1.25
2470,0,5.375
2471,0,5.3125
2472,0,5.3125
2473,1,0.125
2474,0,5.375
2475,0,0.125
2476,1,1.3125
2477,1,0.1875
2478,0,5.375
2479,1,1.1875
2480,0,5.375
2481,0,0.125
2482,1,1.3125
2483,1,1.3125
2484,1,1.3125
2485,1,0.1875
2486,0,0.1875
2487,1,1.3125
2488,0,0.1875
2489,0,5.375
2490,0,5.3125
2491,0,5.25
2492,1,0.125
2493,0,0.1875
2494,1,0.1875
2495,0,0.3125
2496,0,5.375
2497,0,0.125
2498,0,0.1875
2499,0,5.375
2500,0,5.3125
2501,1,3.6875
2502,1,0.1875
2503,0,0.1875
2504,1,0.1875
2505,1,1.3125
2506,1,0.1875
2507,1,1.3125
2508,0,0.1875
2509,1,0.25
2510,1,1.25
2511,1,0.1875
2512,0,0.25
2513,0,0.1875
2514,1,1.3125
2515,0,5.375
2516,1,1.1875
2517,0,5.375
2518,1,1.25
2519,1,0.1875
2520,0,0.25
2521,0,5.375
2522,1,0.0625
2523,0,5.4375
2524,1,1.1875
2525,0,5.375
2526,1,1.25
2527,0,5.375
2528,1,0.125
2529,1,1.25
2530,1,1.3125
2531,0,0.1875
2532,0,5.4375
2533,1,1.1875
2534,0,5.375
2535,0,0.0625
2536,1,1.375
2537,0,5.375
2538,0,5.3125
2539,1,1.1875
2540,1,0.25
2541,1,0.1875
2542,1,1.25
2543,1,1.375
2544,0,5.375
2545,0,5.3125
2546,1,1.1875
2547,1,0.1875
2548,1,1.3125
2549,1,0.1875
2550,0,0.1875
2551,0,5.375
2552,0,0.125
2553,1,1.25
2554,1,0.25
2555,1,1.3125
2556,0,0.1875
2557,0,0.1875
2558,0,5.375
2559,1,1.1875
2560,1,1.375
2561,1,1.25
2562,1,1.3125
2563,1,1.3125
2564,0,5.375
2565,0,5.25
2566,0,5.3125
2567,0,0.125
2568,1,0.25
2569,1,1.3125
2570,1,1.3125
2571,0,5.375
2572,1,1.1875
2573,1,0.1875
2574,0,5.375
2575,1,1.25
2576,0,5.375
2577,1,0.125
2578,0,5.375
2579,1,1.1875
2580,0,5.375
2581,1,0.125
2582,0,0.1875
2583,0,0.1875
2584,0,0.25
2585,1,0.1875
2586,1,1.3125
2587,1,1.25
2588,0,0.1875
2589,0,5.5
2590,1,1.1875
2591,1,0.1875
2592,1,1.3125
2593,1,0.1875
2594,0,5.375
2595,0,5.3125
2596,1,1.1875
2597,0,0.1875
2598,1,0.1875
2599,0,5.375
2600,0,0.125
2601,1,0.1875
2602,1,1.375
2603,0,5.375
2604,1,1.1875
2605,0,5.375
2606,1,0.125
2607,1,1.3125
2608,0,0.1875
2609,1,1.3125
2610,1,0.25
2611,1,0.1875
2612,0,5.375
2613,1,0.125
2614,1,1.25
2615,1,1.3125
2616,1,1.3125
2617,0,5.375
2618,0,5.3125
2619,1,1.25
2620,1,1.25
2621,1,0.1875
2622,0,5.375
2623,1,0.125
2624,1,1.3125
2625,0,5.375
2626,1,0.125
2627,0,0.1875
2628,1,1.3125
2629,1,1.3125
2630,0,0.1875
2631,0,0.1875
2632,1,0.1875
2633,0,0.1875
2634,1,1.375
2635,1,0.1875
2636,0,5.375
2637,0,5.3125
2638,1,1.1875
2639,0,5.375
2640,0,5.3125
2641,1,1.25
2642,1,0.1875
2643,1,1.25
2644,1,1.375
2645,1,1.25
2646,1,1.3125
2647,1,1.25
2648,1,0.25
2649,1,1.3125
2650,1,0.1875
2651,0,5.375
2652,0,0.125
2653,0,5.375
2654,1,0.125
2655,1,0.1875
2656,1,0.1875
2657,0,5.375
2658,1,0.125
2659,0,0.1875
2660,1,0.1875
2661,0,0.1875
2662,0,5.4375
2663,1,1.25
2664,0,5.375
2665,0,0.125
2666,1,1.25
2667,1,0.1875
2668,1,1.3125
2669,1,0.1875
2670,1,1.3125
2671,0,5.375
2672,1,0.1875
2673,1,0.1875
2674,1,1.25
2675,1,0.1875
2676,0,0.1875
2677,0,5.375
2678,0,5.3125
2679,0,0.125
2680,0,0.1875
2681,0,0.1875
2682,0,5.375
2683,0,0.125
2684,0,5.375
2685,1,1.25
2686,1,1.3125
2687,0,0.25
2688,1,1.25
2689,1,0.1875
2690,1,0.1875
2691,0,5.4375
2692,0,0.0625
2693,1,1.375
2694,1,1.25
2695,1,0.1875
2696,1,1.3125
2697,0,5.4375
2698,1,1.1875
2699,1,1.3125
2700,1,0.1875
2701,1,1.25
2702,0,0.1875
2703,1,1.375
2704,0,5.375
2705,0,0.125
2706,0,0.1875
2707,1,1.25
2708,0,5.375
2709,0,0.1875
2710,0,5.375
2711,1,1.1875
2712,1,1.25
2713,1,1.375
2714,0,5.375
2715,0,5.3125
2716,0,5.3125
2717,1,1.1875
2718,1,0.25
2719,1,1.25
2720,1,1.25
2721,1,1.375
2722,1,1.25
2723,1,1.3125
2724,1,1.3125
2725,0,5.375
2726,1,1.25
2727,1,1.25
2728,1,1.3125
2729,0,5.375
2730,1,1.1875
2731,0,5.4375
2732,1,1.25
2733,1,1.25
2734,1,1.3125
2735,0,5.375
2736,1,1.1875
2737,0,5.375
2738,0,5.3125
2739,1,1.25
2740,0,5.375
2741,0,5.3125
2742,1,1.1875
2743,1,0.1875
2744,1,1.375
2745,1,1.25
2746,1,1.3125
2747,0,5.375
2748,1,1.1875
2749,0,5.375
2750,0,5.3125
2751,0,0.125
2752,0,0.1875
2753,1,1.375
2754,0,0.1875
2755,1,1.25
2756,0,5.375
2757,0,5.3125
2758,1,0.125
2759,0,5.375
2760,0,0.1875
2761,0,0.1875
2762,0,0.1875
2763,0,5.0625
2764,1,0.0625
2765,0,0.25
2766,1,0.1875
2767,1,1.25
2768,1,0.1875
2769,0,5.375
2770,1,1.25
2771,0,5.375
2772,1,1.1875
2773,1,1.375
2774,1,1.25
2775,1,0.1875
2776,0,5.375
2777,1,0.125
2778,1,1.3125
2779,1,0.1875
2780,1,1.3125
2781,0,5.375
2782,1,0.125
2783,1,0.25
2784,1,1.25
2785,0,0.1875
2786,0,5.375
2787,1,1.25
2788,1,1.3125
2789,0,0.1875
2790,0,5.375
2791,0,0.125
2792,1,0.1875
2793,1,0.1875
2794,1,1.3125
2795,1,1.3125
2796,0,5.375
2797,0,0.125
2798,0,0.1875
2799,1,1.3125
2800,0,0.1875
2801,1,0.1875
2802,1,0.1875
2803,1,0.25
2804,0,5.375
2805,0,0.0625
2806,0,5.4375
2807,1,1.25
2808,1,0.1875
2809,0,0.1875
2810,0,5.375
2811,1,1.1875
2812,1,0.1875
2813,1,1.3125
2814,0,0.1875
2815,1,0.25
2816,1,1.3125
2817,1,0.1875
2818,0,0.1875
2819,0,0.1875
2820,0,0.1875
2821,0,0.25
2822,0,5.375
2823,1,0.125
2824,0,5.375
2825,1,0.0625
2826,0,0.25
2827,0,5.375
2828,0,0.0625
2829,1,0.25
2830,1,1.3125
2831,1,1.25
2832,1,1.375
2833,1,0.1875
2834,1,0.1875
2835,0,0.1875
2836,1,0.1875
2837,1,0.1875
2838,0,5.375
2839,1,1.25
2840,0,0.1875
2841,0,0.25
2842,0,5.375
2843,0,5.25
2844,0,5.3125
2845,1,0.125
2846,1,0.1875
2847,0,0.1875
2848,0,0.1875
2849,1,1.375
2850,0,0.1875
2851,1,1.25
2852,1,1.375
2853,1,1.25
2854,0,5.375
2855,0,5.3125
2856,0,5.3125
2857,1,1.25
2858,0,0.1875
2859,1,0.1875
2860,0,0.1875
2861,0,0.1875
2862,1,1.25
2863,1,1.375
2864,1,0.1875
2865,1,1.25
2866,1,1.3125
2867,1,1.3125
2868,1,1.3125
2869,1,1.25
2870,1,1.375
2871,0,5.375
2872,0,5.3125
2873,0,5.3125
2874,1,1.125
2875,0,5.4375
2876,1,1.25
2877,0,5.375
2878,0,0.125
2879,1,0.1875
2880,1,1.25
2881,1,0.1875
2882,0,0.1875
2883,1,0.25
2884,1,1.3125
2885,1,1.3125
2886,1,1.25
2887,1,1.375
2888,0,5.375
2889,1,1.1875
2890,1,1.25
2891,1,1.3125
2892,1,1.3125
2893,1,1.3125
2894,1,1.25
2895,1,1.375
2896,1,1.25
2897,0,5.375
2898,0,5.3125
2899,1,1.25
2900,0,5.375
2901,1,1.1875
2902,0,5.375
2903,1,1.25
2904,0,5.375
2905,0,5.3125
2906,0,0.125
2907,0,5.375
2908,1,0.125
2909,0,0.1875
2910,0,5.375
2911,1,0.125
2912,1,0.1875
2913,0,5.375
2914,0,5.0625
2915,1,1.0625
2916,1,0.3125
2917,1,1.25
2918,0,0.1875
2919,1,1.3125
2920,0,5.375
2921,0,5.3125
2922,0,5.3125
2923,0,5.3125
2924,0,0.125
2925,1,1.25
2926,1,0.1875
2927,0,5.375
2928,1,0.125
2929,0,5.375
2930,0,0.125
2931,1,0.1875
2932,1,1.3125
2933,0,0.25
2934,1,1.25
2935,0,0.25
2936,1,1.25
2937,1,0.1875
2938,1,1.375
2939,0,0.1875
2940,0,0.1875
2941,0,5.375
2942,0,0.125
2943,0,0.1875
2944,1,0.1875
2945,1,1.3125
2946,1,1.3125
2947,0,5.375
2948,1,0.125
2949,1,1.25
2950,0,0.25
2951,0,5.375
2952,0,5.3125
2953,0,0.125
2954,0,5.375
2955,0,0.125
2956,1,1.25
2957,1,1.375
2958,0,0.1875
2959,0,5.375
2960,1,0.125
2961,1,1.25
2962,1,0.1875
2963,1,1.3125
2964,1,1.3125
2965,1,1.3125
2966,1,1.25
2967,0,5.375
2968,0,5.3125
2969,1,0.125
2970,1,1.3125
2971,0,5.375
2972,1,0.125
2973,0,0.1875
2974,0,5.4375
2975,1,1.1875
2976,0,0.25
2977,1,0.1875
2978,0,0.1875
2979,1,1.25
2980,1,1.375
2981,1,1.25
2982,1,1.3125
2983,0,5.375
2984,1,1.1875
2985,1,1.375
2986,0,5.375
2987,1,1.1875
2988,0,5.375
2989,1,1.25
2990,0,5.375
2991,0,5.3125
2992,1,0.125
2993,1,0.1875
2994,0,5.375
2995,0,5.3125
2996,0,0.0625
2997,0,0.25
2998,1,0.1875
2999,1,1.25
